sequence_id,timestep,accel_x,accel_y,accel_z,gyro_x,gyro_y,gyro_z,pitch,roll,yaw,floor_vibration,room_occupancy,pressure_mat,label
20000,0,0.2966498570427927,0.1812458549902085,0.15882239074220283,-0.09099798677780277,0.11356258876986018,0.09415004519746137,44.98871218388071,-0.893006272609882,-0.46245994043247385,0.0,0.0,0.0,stand
20000,1,-0.27770686000783873,-0.47806805030852356,-0.2614973727917876,-0.06205311962235456,-0.0803051736615635,-0.11410067014861965,44.078907350654596,-0.0661224600647374,0.7671004959117146,0.0,1.0,0.0,stand
20000,2,0.04800140756683545,-0.16560526076256138,-0.19015713208250434,-0.026641387616946493,0.15658488478949173,0.05357024976679821,43.138312043448636,-0.543395690874366,0.309650748298174,0.0,1.0,0.0,stand
20000,3,-0.04239266307137812,-0.16609873616575355,-0.019157568416285915,-0.1794540366262628,0.049824381776087286,-0.03487047779306759,42.23434248795322,0.6555785291895337,0.5297653157907158,0.0,1.0,0.0,stand
20000,4,-0.36409498829459375,0.13640091863758086,0.016498424642323692,0.04524724740812239,-0.040796217160995026,0.025796585977392584,41.31068899125849,0.5790954628253018,0.7690419848443137,0.0,1.0,1.0,stand
20000,5,0.28450972214125964,0.09967433622711042,-0.4267286269188736,0.012579468138799114,-0.10369842047893255,0.1611996310347964,40.40443550183204,0.8269055936888828,-0.3968842890790184,0.0,1.0,0.0,stand
20000,6,-0.03897405342739893,0.014354566152178939,-0.3658566078566835,0.13857724765613003,0.23412870205435984,-0.04925116821160935,39.50220236734964,-1.3470829898591075,-1.033719730641274,0.0,0.0,1.0,stand
20000,7,-0.24520110140976048,-0.02903251080925821,0.21654827526356657,0.09813234075666834,-0.17569171013670093,-0.13797645125101043,38.59012773819326,-1.3202950899126509,-0.8268778612199125,0.0,1.0,0.0,stand
20000,8,-0.17287301977654668,0.12902432872866176,-0.2605860213190772,-0.1800958516036838,-0.014267878189839081,0.041989494920735254,37.629240493276505,-1.3337128115666674,-0.30698735690395207,0.0,0.0,1.0,stand
20000,9,-0.04103341340622054,0.19617619313238474,-0.2670732603761701,-0.08998775652403769,0.0076167411146926215,-0.1437692258388475,36.717678513235526,-1.5016925026925105,0.14175125812526507,0.0,0.0,0.0,stand
20000,10,0.35609155797247916,0.33211145904575473,-0.35802693192273355,-0.05392646284460508,-0.13108177980023655,0.0035882365896966473,35.792932785624245,-0.22733506533339742,-0.3446400389773738,0.0,1.0,0.0,stand
20000,11,-0.0926471843667645,0.07300497317632819,-0.20205447340373056,0.1448941798619754,0.09875074886130228,0.056053871519402276,34.911622910569875,-0.6040602129147041,1.4192300108042686,0.0,1.0,0.0,stand
20000,12,-0.054307820149286534,0.16936680809895152,-0.24137167892782543,-0.028743797924944393,0.18100762399209183,-0.256155060716894,33.99345147173651,2.431630445716273,-0.5977646422650083,0.0,0.0,0.0,stand
20000,13,0.30213149155628644,-0.056406897111729186,-0.1466496357713979,-0.029177535743860537,-0.09000628915768383,0.09943201657779398,33.03674549820551,-0.896102555308268,-0.29940938513194304,0.0,0.0,0.0,stand
20000,14,0.054124500390054765,-0.16621928284703952,0.19780637792259342,0.043642282791961945,-0.057128716007784214,0.016941520097172615,32.138630852530426,2.1439995701097647,-0.08812050550630543,0.0,0.0,0.0,stand
20000,15,0.28466865935675356,0.014642919121455685,-0.21506781447920412,-0.06785369328821028,-0.055673648645697064,-0.20346000474373108,31.250026758486623,-0.736689336872005,-1.0732400446962025,0.0,1.0,0.0,stand
20000,16,-0.017105554521926195,-0.11261258525503942,0.10481357515213807,0.0814161428101206,0.07013752643208537,0.10367441443682199,30.35183408949315,-0.8019160682801182,0.4320111966322587,0.0,0.0,0.0,stand
20000,17,0.07316927135053754,0.1552632175072297,-0.01656057985179324,-0.13396729675223204,-0.08710129496273027,-0.007200358500716198,29.407855090305645,0.7904571757904868,0.6919128828788209,0.0,0.0,0.0,stand
20000,18,-0.17060594877184093,0.021822161369732224,-0.3528509434418296,-0.09162626013337437,-0.19374980348447557,-0.03173967043385632,28.466633471979165,-0.6089685024138485,-0.4579354474819295,0.0,1.0,1.0,stand
20000,19,0.0413093589081559,0.2242853438343612,-0.07122297219359537,0.09398795608890216,0.02612136063902649,-0.09598649937008269,27.522045162784288,-0.6928748708902026,0.30195465685356304,0.0,1.0,1.0,stand
20000,20,0.03508965254036799,0.35679204250062335,-0.14970932024179723,-0.051495515553421814,-0.0019319423087136595,-0.03281522781363612,26.586888027325866,-0.5726099985518611,1.4223108159944167,0.0,1.0,0.0,stand
20000,21,-0.023078668122068758,0.06638604104136805,0.07404246689693934,0.041904772945275226,0.0609893555635493,-0.06067723894341095,25.74342721712497,-0.16718204176477072,-0.06035534959132954,0.0,1.0,0.0,stand
20000,22,0.06292416349740122,-0.1706837657529382,0.19659142745042388,-0.036088941932546886,0.11085922824300004,0.2305489086448072,24.783652397380944,0.24789987317925638,-0.6730053164958201,1.0,0.0,0.0,stand
20000,23,0.020091873358588738,-0.0591675590584061,-0.0626673116547171,0.10315859082951512,-0.13084529585919275,0.07297776906351877,23.88137195312051,-0.28617837539514474,-0.9564125706923837,0.0,1.0,0.0,stand
20000,24,-0.1785333965127136,0.3282653548148547,-0.1387231211214738,0.057425682952656,-0.028223555708720427,0.13592351416672757,22.940412361903103,-1.506867017323001,1.123335083067734,0.0,1.0,1.0,stand
20000,25,0.12803824649962314,0.3757483155802983,-0.12018513908801509,-0.07973755911541168,-0.05146556278752765,-0.06824781573366777,22.042137854093472,0.7831497616397992,0.8162401765361084,0.0,1.0,0.0,stand
20000,26,0.30648523602839534,-0.03866284115822006,0.004112063356408405,-0.022235052853005834,0.011162706703281872,0.031002622977736025,21.108210640553086,2.4050287109160378,-0.4377982370585409,0.0,1.0,0.0,stand
20000,27,0.0918204252652342,0.21700257334937506,-0.26357901236709697,0.1265264164995609,-0.08603226268538777,-0.01383394133015999,20.23304559983883,0.30268015936792103,-0.8947897594800251,1.0,1.0,0.0,stand
20000,28,0.11044049530546113,0.10863676509496356,0.06941226838832767,0.02099107651283171,-0.01388567836465044,-0.1207329644135263,19.288645227501963,-0.9640995492241663,1.0445712646459777,0.0,0.0,0.0,stand
20000,29,-0.18466756335910078,-0.150058862806519,0.031018385726039994,-0.0063866669502630775,0.09526287152289725,0.0445461132933495,18.353692599921708,0.36783153410578395,-0.06202409769328465,0.0,0.0,0.0,stand
20000,30,-0.15012743561816994,0.2339089784406505,-0.34661063887287863,0.11746874592173581,-0.10765597066329703,0.07477662158087328,17.446449876190055,1.4885357912957242,0.034929378485403846,0.0,0.0,0.0,stand
20000,31,0.22115219058147026,-0.3441081035848524,-0.2271070024652973,0.014881549191183818,-0.0052728370897695,0.032820856490699345,16.489858375303402,-2.3378437787247774,-0.5118675070952086,0.0,1.0,0.0,stand
20000,32,-0.3393964663904256,0.09977068554473455,0.1012152071246746,0.05494649957628518,0.08508014299458067,-0.09325912698344542,15.624993395198286,-0.9067268004190198,0.19888192907114652,0.0,0.0,0.0,stand
20000,33,0.19372836425481588,-0.13271126817531775,0.03842013287062371,0.06561985437654055,0.08302121987227308,-0.01792724188546174,14.697457550288624,0.27769211660510457,1.4861838017903237,0.0,0.0,0.0,stand
20000,34,0.09133419581640151,-0.09808080954148592,0.17057495662298802,-0.14359214074528148,0.0976285287205472,-0.09861585245581855,13.772954299153781,-1.3697497294012548,0.5090036777853131,0.0,0.0,0.0,stand
20000,35,-0.029094973700163514,-0.4708298144360826,-0.009551819353742923,0.051350016667032324,-0.03289228487080622,-0.01977684072345248,12.843024477071081,-1.1987979510642888,0.4313890536262315,0.0,1.0,0.0,stand
20000,36,0.12021215353957948,-0.3667764792199096,0.09084091093017843,0.014167708656490554,-0.019159677822559305,-0.015096304103016364,11.905217463491503,-0.8332786196356073,1.2100740063576287,1.0,1.0,0.0,stand
20000,37,-0.11157463673695456,0.03572734971327077,0.070723271786795,0.06522889070292702,0.22514822168625934,-0.1579475102279644,11.003290556985752,-0.7663379983143493,0.5780766760431809,0.0,1.0,1.0,stand
20000,38,-0.2684229623288261,-0.47045001770528627,0.13524123590605128,0.08175137999003415,-0.059728242320455455,-0.057467882877493354,10.109385409348956,-1.4051370401775785,0.1348075288927678,0.0,1.0,0.0,stand
20000,39,0.17278499327411034,-0.19005792480226155,-0.044175593852776696,-0.07345280779940422,-0.061112327651226234,0.06957187266664236,9.14638366174558,-0.0545789474339098,0.6890965434680845,0.0,1.0,0.0,stand
20000,40,-0.1051391081232018,-0.11885898464031003,-0.08749060071140732,0.004666423127509995,-0.04782208333083465,-0.12442610235305533,8.261703371041305,0.1615673841412051,1.721572444769007,0.0,0.0,1.0,stand
20000,41,0.20658598721923907,0.011736055784089407,-0.2583154394646657,0.09797226425595919,0.2598697247234118,0.0499315175967944,7.317528244503104,0.45695245978369625,-0.9474580764511905,0.0,1.0,0.0,stand
20000,42,-0.06750018296021468,-0.023610686147503425,-0.03305644088121665,0.12129805686738215,0.01021849862550947,0.031716391708477065,6.425837988084617,0.4637078719626378,0.27722717491551996,0.0,1.0,0.0,stand
20000,43,0.058996826542470814,0.19293324954516936,0.04944003286252772,0.022546908378328685,-0.033266730874543245,0.15682975990893244,5.501132591365612,-0.0342736225973671,-0.040064425179518866,0.0,1.0,1.0,stand
20000,44,0.33985594242615386,0.10514795086563206,0.17598571236666563,0.06994787069440443,-0.10651416035662394,-0.09593933015744877,4.61245901358848,-0.01266350196583164,1.4445068035460615,0.0,1.0,0.0,stand
20000,45,0.3268889254849336,-0.15608901618277413,-0.17158970168496,0.014713035505980153,-0.08744840773811993,0.0432708080263999,3.66419550621229,-1.4337345697853847,-0.046997062161816705,0.0,0.0,0.0,stand
20000,46,-0.04300712532749129,0.005630630218545972,-0.4716860582841758,-0.03373951113112161,0.01458353357214473,0.04314605784212171,2.745260988343023,-1.5963270077381544,0.1914551404213874,0.0,1.0,0.0,stand
20000,47,-0.30971282669922784,-0.06546515969337852,0.22315194795846302,-0.1125050711977878,-0.05476078128123816,-0.05327492735942629,1.8208790045682968,0.5383515181497162,-2.4481168160650366,0.0,1.0,0.0,stand
20000,48,-0.06589155941950525,-0.013011131760873299,-0.15006043146866963,-0.07461190716551097,-0.1157205701795039,0.03065643400757454,0.8965484500313792,0.3474058814628912,0.4906971664547198,0.0,1.0,0.0,stand
20000,49,0.1776257622001833,-0.004700397143180594,-0.010712942125845504,0.20447612515830146,-0.04113980743918537,0.014441000795393125,0.010381491242564173,-0.19789979273201141,-0.5402735980287463,0.0,1.0,0.0,stand
20001,0,-0.0563872572617505,0.29706599019922597,0.06520088534417522,-0.24600790941677175,0.054104008302497356,0.06562613677317129,0.5560512717364952,0.3089120392514184,0.5040718096892182,0.0,0.0,0.0,fall_forward
20001,1,0.05352661391223437,-0.20494296613354746,0.1623665692651325,-0.18867576793059662,0.18438245677610104,0.22992217343986646,0.3769668405323304,-0.0646671742033296,-0.0947912491616035,0.0,0.0,0.0,fall_forward
20001,2,-0.21178518857547907,0.15963816811353287,-0.3339657038615542,0.004871962217943466,0.23371299037794172,0.28923768170056524,0.5660537157249497,-0.6945666718205188,-0.19722097911595532,0.0,0.0,0.0,fall_forward
20001,3,-0.11350217552552572,0.29903911204873745,0.0881683100962092,-0.006201458187911489,0.1291784723386954,-0.006320872394133349,2.242467957796282,-1.2287611518074226,-1.0079460334380734,0.0,0.0,0.0,fall_forward
20001,4,0.4272527203019915,0.4259493616601105,-0.5269853669304173,-0.011157978811938574,0.26622695561798987,-0.08115475023417149,-0.17106612275195118,-0.4585066349707085,-0.626065697544951,0.0,0.0,0.0,fall_forward
20001,5,-0.12176004143864003,-0.2862130823470919,-0.12485537644552955,-0.05516818991572468,-0.04512480774574133,0.1069902548350635,1.307494524139724,0.8328083376009792,-1.9147800134195303,0.0,0.0,0.0,fall_forward
20001,6,0.09276486638170782,-0.015094366869045162,0.06740109188208104,0.09219572041873221,-0.04853887634707076,0.07673878621876626,1.1015759875250308,2.1241008921533155,-0.4502285628827866,0.0,0.0,0.0,fall_forward
20001,7,0.06612622494935971,0.0018820319883606391,0.25228051535994844,-0.17704571843009018,-0.007928125490441636,-0.007999808130835749,0.021379388704384876,2.77766097032131,0.4151869868953472,0.0,0.0,0.0,fall_forward
20001,8,0.04159472024226721,0.1348366048923014,-0.19189303730234705,-0.12210502108511996,0.011026787694024726,-0.05351127101515503,-0.2903533679028987,0.2203453764157547,-0.8928446840045599,0.0,0.0,0.0,fall_forward
20001,9,-0.169411537122198,0.06387232635534353,-0.0010572555362548218,-0.004662849769977315,-0.09033395658196879,-0.03228811219000552,1.1784002715866575,0.0863608739821938,0.14485254253596314,0.0,0.0,0.0,fall_forward
20001,10,-0.043251969827472744,-0.08420391114889768,-0.13396620192278072,-0.13369637565803205,0.07393648723691779,0.14262589293651537,0.50307750410245,-0.826479921374193,-0.6112656380696146,0.0,0.0,0.0,fall_forward
20001,11,0.016616132991852897,0.3423489879088305,0.02365700257053495,-0.05566992881347427,-0.06482543942045563,-0.00424989949637409,1.775366105128036,-0.07905385338547209,0.20569506106296936,0.0,0.0,0.0,fall_forward
20001,12,-0.04465322498748307,0.11771058849510696,-0.16781305959710474,0.026832225315062526,0.0054064516241811925,0.10877199763977798,0.16739310111456265,-1.5460757156194391,-0.34348121090135164,0.0,0.0,0.0,fall_forward
20001,13,0.23309585311851055,0.12900047805018025,-0.19694704463240514,0.006738702768001386,0.05521139105655149,-0.20018946136895388,-0.9473038137668525,-0.8280472563552471,-1.429338494790113,1.0,1.0,1.0,fall_forward
20001,14,-0.21465425779665345,0.3109335611465138,0.030977538327535015,-0.05578033270838693,0.33504927254661127,-0.23461774998215337,2.1645471247716936,-0.24859370503199948,0.5470082383546726,1.0,1.0,1.0,fall_forward
20001,15,7.320994016306747,6.1733309878170095,7.6741099579705985,2.9108512571068244,2.5458195782584503,2.78961438051354,-0.37370614347428666,-1.2675479541092143,-2.421428677696965,1.0,1.0,1.0,fall_forward
20001,16,6.283007567965554,5.304683522196225,7.887867602101083,2.106543537756161,2.177571254211096,1.9854479318741929,-0.1496768617094214,0.5001595175489851,2.0053609870074918,1.0,1.0,1.0,fall_forward
20001,17,5.68828714148815,9.361752235280623,5.345664881205396,2.8901104802631874,3.8446106777511497,2.3565914896376396,1.4962031645364893,-0.23892947455458619,0.7503315837449679,1.0,1.0,1.0,fall_forward
20001,18,-0.14688269891763509,0.03514581942798864,-0.17689563959485086,-0.07843127222473241,0.09325151818079444,-0.02859944143366918,-0.42481471379393587,-1.8639101450560045,-0.2828379438352916,1.0,0.0,1.0,fall_forward
20001,19,0.2028078502484607,0.09369680473961396,-0.11398056232854106,0.024741367701656546,-0.0944166459682346,-0.25896835577996424,-0.6945797290965937,-1.3438694213293312,-0.7878197344744015,1.0,0.0,1.0,fall_forward
20001,20,-0.1162042803599467,0.25071025683559817,0.06717598262908,-0.06195572244864292,-0.024851097774507353,-0.17079869045797047,-0.8043136091117349,0.9716562503599442,1.7305628798162571,1.0,0.0,1.0,fall_forward
20001,21,-0.30510176363306496,0.0630896644237238,-0.15177474678960035,-0.1980164265687569,0.052533332722558945,0.18710145453508786,1.4831164735308118,0.5373982063532812,0.39440378304394313,1.0,0.0,1.0,fall_forward
20001,22,0.08849381643119526,0.28331108934936444,0.31586389822797073,-0.01639016914142833,0.06042490492899351,-0.11279014308447972,0.5842813081603678,1.3946553012316762,-0.90630534979148,1.0,0.0,1.0,fall_forward
20001,23,0.02670890569298705,0.1618631042288801,-0.1480808194918279,-0.08530598260997546,0.00909685729263407,0.22583003474643848,0.9908735829961218,0.3327583047540276,0.43864082017987144,1.0,0.0,1.0,fall_forward
20001,24,0.5058692197599325,-0.17250565945726576,-0.14546775478436477,0.24647849032824468,0.031483049871759185,-0.05627655500739667,-0.22085090410499292,0.6369553147407724,0.35308375754688015,1.0,0.0,1.0,fall_forward
20001,25,-0.15950896448266647,-0.010989123354738579,0.0702229196846016,0.08690055326869393,-0.027032006271232388,-0.06506135023953408,0.19150657612238253,-0.6704112058323793,0.20424308356645463,1.0,0.0,1.0,fall_forward
20001,26,-0.26983561653693294,-0.08551764913977696,0.0047251258915475824,-0.02373814930745206,0.10043109218018624,-0.04010548936719713,1.8835643925472705,-1.627458414602527,0.9766972246334659,1.0,0.0,1.0,fall_forward
20001,27,-0.24278864363923874,0.41712670044631306,-0.10020855512961994,-0.08945899329008178,0.047171491775678254,-0.05639711184942384,1.546136128262321,0.044035926344001594,1.9664306122980104,1.0,0.0,1.0,fall_forward
20001,28,0.23294087083256926,-0.1725763352352388,-0.11869848238607691,-0.21915790086664957,-0.027911215362144234,0.10171099069874404,-0.6918448806651586,0.7491001330494126,0.1893107593017216,1.0,0.0,1.0,fall_forward
20001,29,-0.10691061899404017,-0.14047438972119916,0.0001308642444482755,0.04419398153509865,0.030126302777918675,0.004942282331619127,0.12437376704658766,-0.3184991915167648,-1.076598256066793,1.0,0.0,1.0,fall_forward
20001,30,0.057311200889609594,-0.1727247953791926,0.4127994832033347,-0.13570285786389252,-0.040211351839179385,0.12239185272008907,-1.3146843185058568,-0.3068252934606558,-1.4244142871547518,1.0,0.0,1.0,fall_forward
20001,31,-0.05003089559242527,0.03652815573878977,-0.2900005981226355,-0.013107660953689421,-0.1799926578436103,0.03612076487524046,0.3568722868554889,0.6402826531577701,-0.17316843412347344,1.0,0.0,1.0,fall_forward
20001,32,-0.057530491305771564,0.02770612983982245,0.20688820991393217,0.19018575488250677,-0.14737297072015484,0.11361385164500591,0.9816160146361224,0.014940927145758074,1.0339897493630117,1.0,0.0,1.0,fall_forward
20001,33,0.04640503052930464,-0.3198627210994581,0.04759564349967831,0.0564403898224514,0.023723792479640196,-0.07557646507389415,0.520939908861535,-1.2834657171645574,-1.7964821563508664,1.0,0.0,1.0,fall_forward
20001,34,-0.19930607855150034,0.15619882829911236,-0.00833740904669096,-0.1160557733131389,0.05598696205328922,0.06773533725265156,-0.1695160327039199,0.2430496243145799,0.2506651276990647,1.0,0.0,1.0,fall_forward
20001,35,-0.20212486518687103,0.09446265275135936,0.15052838742318791,-0.13418013446448954,0.05307926483982944,-0.02486582740802197,0.24170621413655868,-1.4310976664044157,-1.5951918283636015,1.0,0.0,1.0,fall_forward
20001,36,0.020348106964163195,-0.4006177061975168,-0.32739342600539123,0.13091362768230388,0.0474601214682267,0.12114964587698236,1.5342314467787543,-0.5692752817982322,-0.480352564288164,1.0,0.0,1.0,fall_forward
20001,37,0.1598197110674716,-0.19528965299417506,0.030814248413421882,-0.060442799701420996,0.058348588860836104,0.2503450365948932,-0.7289934025304494,0.9470388076154039,-1.74600090390394,1.0,0.0,1.0,fall_forward
20001,38,-0.31507622881973235,-0.22233087152006098,0.016024236235016562,-0.13933986695671147,-0.013092246608094993,-0.17706822815497192,-0.16853347292025683,-0.8666422098540691,0.7107404766043245,1.0,0.0,1.0,fall_forward
20001,39,0.07788619726695961,0.13700247173078445,0.15822423806100713,0.19525369487478605,-0.0313062861227769,0.03808133494023476,0.028626314692811274,0.165680152011604,0.3673228081643007,1.0,0.0,1.0,fall_forward
20001,40,-0.046705568524680184,0.4523432884400145,0.038313123547346346,0.08420640031648212,0.05366564003973642,-0.04060512739127742,0.2701900738575963,-0.5510865972009023,-0.8624703759741154,1.0,0.0,1.0,fall_forward
20001,41,0.18108280285558248,0.014165575390175628,-0.2062300631272406,-0.09581338251787644,0.14911858468440087,-0.03848049241506557,-0.7575493544074252,-0.49678927110440474,1.0312601936674766,1.0,0.0,1.0,fall_forward
20001,42,0.22122340366150078,0.068331959195524,-0.09331447314105165,0.11677719542846968,-0.09145220426732552,-0.054568828207745654,-0.4297577397137432,-2.0514288434516654,1.0033859144605,1.0,0.0,1.0,fall_forward
20001,43,0.0881384008547188,0.46274015498406623,-0.025733405725464713,0.0533163364309866,-0.16302896776785494,0.040898308964562057,-0.28649106215550796,-1.507309132183005,0.7999837945680747,1.0,0.0,1.0,fall_forward
20001,44,0.006946903477439415,0.29290454588793813,0.10702892253544535,-0.20908268029083582,0.012127988444996955,0.05839824055699451,2.1313067699536283,0.2525967418346116,-1.8746867295364413,1.0,0.0,1.0,fall_forward
20001,45,0.23182339398705998,-0.023789927848009623,-0.104999415555435,0.05612872520556184,-0.14943749559577305,-0.05886277291219901,-0.018180332472211624,-1.3400844080777405,-0.17710697881870233,1.0,0.0,1.0,fall_forward
20001,46,0.00803556248989791,0.12782224685908622,-0.12086883974556697,-0.12858383211984037,-0.04108268739941396,-0.028536237689275865,-0.6797429214265444,-2.6486508739626315,-0.10020982785353888,1.0,0.0,1.0,fall_forward
20001,47,-0.004223786725509576,0.05753976231079182,0.14187951320161007,-0.13225266211118364,-0.023612609985322525,0.07008218153078102,1.2168248140052422,-0.9916639366500744,-0.046856542697348055,1.0,0.0,1.0,fall_forward
20001,48,-0.11267029958937673,0.3216791126137367,-0.13310864711390255,0.03074370363192285,0.09734907944607035,-0.09797969071075543,-0.7412977944830241,-1.9405688166380908,1.5836331060093205,1.0,0.0,1.0,fall_forward
20001,49,0.29333945230121333,-0.03976346753511466,0.15688713531462262,-0.029285904044177392,0.03451175695395278,-0.2503234678402345,0.6961902142295775,-1.8167465334743371,0.18027581795548817,1.0,0.0,1.0,fall_forward
20002,0,0.18458310492730032,0.08060563290651654,0.39495601594272034,0.15428535370166738,0.1146600385235589,-0.26249277096647206,44.99843070392771,-0.10547995837282713,2.2671221747075605,0.0,0.0,0.0,stand
20002,1,0.16664339543168918,-0.4362156813606981,-0.22131903075877435,0.14537762358815498,-0.15914835508312966,-0.017855332189461014,44.085658552059975,0.5165745223952428,0.08770101751583033,1.0,1.0,0.0,stand
20002,2,0.20956021192462077,-0.11962878669088721,-0.07547914153714196,-0.10943700556406702,-0.2519265545622164,0.017038963088791804,43.197817195177,-1.5817404394184635,0.3570092273758512,0.0,1.0,0.0,stand
20002,3,0.05830636849560714,-0.07437956503158138,0.33291158238808793,-0.0030319827753095448,-0.2911758666770432,-0.05418339773927018,42.20309174743431,-2.123580966659711,0.7585784783996681,0.0,1.0,0.0,stand
20002,4,-0.015516033734558338,-0.5535714018284278,-0.05915392410553616,0.1493298253690583,-0.06528893207401246,-0.16301463950256226,41.33756064432952,-0.5315002478656209,-0.4668130040385057,0.0,1.0,1.0,stand
20002,5,0.09816846923322219,-0.008836334605638003,0.16203261949497547,0.008336171017362866,-0.017324944928670684,-0.022917460663942173,40.40684470432308,1.1408572083782962,-0.188958897057983,0.0,0.0,1.0,stand
20002,6,0.10066235177682968,0.10602902638824643,-0.1622269708196236,-0.027652965224738264,0.11208653875104696,0.05845517574575462,39.482684858031796,0.3649847026940757,2.1249856026543483,0.0,1.0,0.0,stand
20002,7,-0.12284133541932857,0.17212205810063283,-0.10054288689474015,0.023921240168316982,-0.028207736123601376,-0.07191357824974146,38.59698354495858,0.61197819344134,-1.8414332392994566,0.0,1.0,0.0,stand
20002,8,-0.09015277769265548,-0.12818031238262886,0.12570825759604845,0.1425972310857387,-0.037933999367121274,-0.020536778048489926,37.62179197186514,1.2540269314063608,0.6551063736956464,0.0,0.0,1.0,stand
20002,9,-0.163409015162992,0.12076395567464071,0.1676769655464582,-0.0810553583292727,-0.11659186165417966,-0.09174192590260748,36.76761966501347,-0.5408253917412159,0.44943547173029585,1.0,0.0,1.0,stand
20002,10,-0.18003381222720194,0.1451900190301564,0.08657140247486365,0.05039548029412995,-0.004553903994342613,0.036007571762420934,35.79787301257962,-1.7286156789969669,0.28084286247905055,0.0,0.0,1.0,stand
20002,11,0.23960111330850034,-0.04885421135664277,0.01676344044023051,-0.01616200336766403,0.1434730694487004,0.11775043240883207,34.90049766838441,0.1478918478875456,-0.8095898927076222,0.0,1.0,0.0,stand
20002,12,0.14564896064484428,-0.2036344885073531,-0.1991061426789593,-0.027357028897653745,-0.04093568250727456,0.0843682867712628,34.01380711784793,0.7109599490570401,0.8860525935758145,0.0,0.0,0.0,stand
20002,13,0.0993721920940631,0.29116568697289724,0.006901956461445171,0.02450617141497067,0.028595238472427016,-0.18405203562639635,33.0651602875019,-0.00426390765470281,0.24764688971612567,0.0,0.0,0.0,stand
20002,14,0.09457093821814118,-0.11787578568035682,0.08343023167119859,0.01275126444110104,-0.019069080020196694,-0.006777170065066292,32.15634102567255,1.0965248758186688,0.5185584615888104,0.0,1.0,0.0,stand
20002,15,-0.08191356215989581,-0.19036439714795866,-0.17287698101681842,0.07374734010646367,0.01219854237444094,0.1381276998341139,31.236614527707815,-0.572540555536536,0.24721773144072492,0.0,1.0,0.0,stand
20002,16,0.2527707352569434,-0.011419382801802425,0.025869966567293887,0.09886089959237619,-0.019533447149939025,0.12659706839522247,30.309387287469516,1.2267162270362726,-0.6740018487048418,0.0,0.0,0.0,stand
20002,17,-0.3315535718331351,-0.2843280899602456,0.35809995542646994,0.07805544346361122,-0.05201055771473342,-0.15700883897821094,29.403951634962812,-1.318627862162982,0.5876045387046513,0.0,1.0,0.0,stand
20002,18,0.10519508521001636,0.12337484802937934,0.2891344027800373,-0.09720842552575994,-0.07921177605441751,-0.0905093175959164,28.448825923258468,1.2454445854119462,-0.9765192694808972,0.0,0.0,1.0,stand
20002,19,-0.030093701246467264,0.038494926529790995,0.27982060982566836,0.02062949261705168,0.041172854368790146,-0.15653275865917404,27.570660581961775,0.7097045633309464,0.8645767533530164,0.0,0.0,0.0,stand
20002,20,0.06361021648494067,0.15387444266944061,-0.1348308770313248,0.12244625448225543,0.10283721371857864,0.23670642005724934,26.660975335317733,0.6842487801972822,-1.5413950424909313,0.0,1.0,0.0,stand
20002,21,-0.12944203878789695,0.14397762187009241,-0.11601123118818915,0.09642620073895913,0.06960378976649959,0.046960812646589585,25.744968001180094,-0.6367289328810072,0.9236052406376168,0.0,1.0,1.0,stand
20002,22,-0.038912377861831306,-0.13270295267828494,-0.19423989026065053,-0.0437987115256791,0.14675932298165165,-0.09067539507060828,24.796217650251453,0.4925753291156464,-0.2039681932674947,0.0,1.0,0.0,stand
20002,23,-0.07368543984130602,0.05290308869328763,-0.11259573589505038,-0.1308999087300673,-0.1635676992627543,-0.13028759659933822,23.88321573615763,0.4727351474795096,1.7078860809071494,0.0,1.0,0.0,stand
20002,24,-0.12053470598523541,-0.055633013894193444,0.03597545418627934,-0.1220133491943208,-0.03048563645198474,-0.23196788864538284,22.975785467826007,0.6925476208526103,-2.3842921276903297,0.0,1.0,0.0,stand
20002,25,0.14396094486057437,-0.251443699497806,0.03995703718729328,0.07605961026374419,-0.16258771299071542,-0.15146326252534512,22.016543408654144,0.8704107191875675,-0.5377793408667281,0.0,0.0,0.0,stand
20002,26,0.2260309069012556,-0.2052027439005671,0.08255362091579269,-0.008669728644940018,-0.14526238124759572,-0.007985013420664502,21.107688520209166,0.8011596201511432,0.5325403981251589,0.0,1.0,1.0,stand
20002,27,-0.4333471475744208,0.04370952955959315,0.16752612781184573,-0.08385766347038728,0.056744143942261994,0.0452050517508775,20.201555559115175,-0.8142234229976629,-1.3522448530548328,0.0,0.0,0.0,stand
20002,28,-0.3080316396232579,-0.30846035874091915,0.016890625503834716,0.06948185477974397,0.012082843678960464,-0.09004588523539708,19.265544179756716,-0.9166098314249865,-1.8554632128523805,0.0,0.0,0.0,stand
20002,29,-0.2274578696451904,0.09415671147437377,-0.05961416266040134,-0.09672489516444056,0.1162405012611121,-0.026848976860473935,18.39884073698808,0.5192205739619137,-0.3427137810537815,0.0,1.0,0.0,stand
20002,30,-0.20243984162223128,-0.054398271850534294,0.1322762927563022,0.18617094948566407,0.21066986321288414,0.002665534757070969,17.44038885750246,0.02949456088280096,1.7969303353539998,0.0,0.0,0.0,stand
20002,31,0.07834759400106865,-0.37157825985239257,0.17131945635685178,-0.0656061659739971,0.04998582408865311,-0.1195164944024745,16.508949796924576,-1.9737920349229099,-0.23813655766764882,0.0,0.0,0.0,stand
20002,32,0.08799789806575666,-0.08297612581615213,-0.09441062802754407,0.00365809158998193,0.05050474351116781,-0.039524996240849986,15.633706019423084,-0.8906045607145469,-0.0698289962785198,0.0,1.0,0.0,stand
20002,33,-0.1826208917381579,0.09074049184763326,0.05003206569894737,0.10549180663924032,0.1330712710050071,-0.06093083872278904,14.740487663830631,-0.22127029750555108,-0.20765275567441055,0.0,0.0,0.0,stand
20002,34,0.08663336656172205,-0.34128859821458385,-0.03303884050351574,-0.0013861595630266371,0.0778971897653796,-0.07485400097134365,13.775495395679496,-0.6315356040072899,0.6664056294349874,1.0,1.0,0.0,stand
20002,35,0.14127930518384252,-0.12458929711674183,0.011974868718995505,-0.1756343733217411,-0.21025869440410516,-0.05926479810687404,12.876545287017317,-1.439488229861276,-0.04492549152063789,0.0,1.0,0.0,stand
20002,36,-0.031872449877685616,-0.3746160122313955,0.16518130644116147,-0.1271954466395066,-0.09732152649609078,-0.03850929357717879,11.94171576305907,0.5760371901167957,0.9044227875546595,0.0,1.0,0.0,stand
20002,37,0.128753456436291,0.01914914877405401,-0.1512695733923235,-0.04985926379868087,0.016844413241575776,-0.10652306687746269,11.004048936066248,-0.4583724518608438,1.1839569977650506,0.0,1.0,1.0,stand
20002,38,-0.17796545536385255,-0.18971781810438,-0.10741517043242194,-0.09860571217234085,0.11599653786082745,0.11510534409352363,10.106334631013924,1.050698783723176,0.5072195064830556,0.0,1.0,1.0,stand
20002,39,0.009655756189345891,0.03852627531405918,-0.07399755256543686,-0.20075941982290965,-0.15566408094019168,0.037988470921186616,9.213759878423943,2.0876686955198167,0.326636423473534,0.0,0.0,0.0,stand
20002,40,-0.26105056001243077,0.12146332475318652,0.023387953110684187,0.10445897965360826,0.12732989034491568,0.13547141540555144,8.283509109729856,0.1537018504070578,0.0929658873964688,0.0,1.0,0.0,stand
20002,41,-0.04207747117667788,0.08346559240265697,-0.07467299535896327,-0.02866922524856368,0.1499362808159319,0.06931736469503687,7.314759562223081,-0.620496867488909,1.2449688381457729,0.0,0.0,0.0,stand
20002,42,-0.252991593807087,-0.01460502146483424,-0.028679374465089478,-0.10024156787647612,-0.17099443575998607,-0.06924530959231177,6.411685853422082,-2.872530341934794,0.9652009928399895,0.0,0.0,0.0,stand
20002,43,-0.049483595930809664,0.05959352146516032,0.12407815806333747,0.2016837467837871,-0.07322662428259633,-0.10525131812030222,5.514812765516109,-1.8807894804365277,-0.23585953488868164,0.0,0.0,1.0,stand
20002,44,-0.07498724334191785,-0.21101014642805282,-0.09691199294488798,-0.12885549429290735,-0.05942797823409268,0.1439451523901972,4.593929742294213,-0.7254732279994952,-0.43147542524675647,0.0,1.0,0.0,stand
20002,45,0.2331731047763603,0.23669536566489915,0.15176633876586007,-0.020371746423336258,-0.17598951248056832,0.018573474573405142,3.703331566261465,-0.25395167313452166,0.974188530259509,0.0,1.0,0.0,stand
20002,46,-0.16672342135344503,0.09466044411025429,-0.008444353402510724,-0.10821715249170716,0.15619224617369376,0.13119268201975995,2.734099843012587,-0.205603905218672,-1.666315499126223,0.0,1.0,0.0,stand
20002,47,-0.13826930481152339,-0.006717775202515593,0.15158646717676094,-0.027025861686837592,-0.1078135412832622,-0.06441256683471668,1.879085320795121,0.16782636827125277,-0.6125284866989762,0.0,1.0,0.0,stand
20002,48,0.13634166385095164,0.2568990556890969,0.3829824583094765,0.032301172889120065,0.08133329766434029,0.03487404604316914,0.9321069727182795,-0.7857583313992182,2.622118236028735,0.0,0.0,1.0,stand
20002,49,0.108317429207685,-0.0021379763872804345,-0.1086606215713385,-0.07019552997946708,-0.026597573077738426,-0.04594470628438134,-0.017293554715888056,1.0597081205021137,0.43499222886259054,0.0,0.0,0.0,stand
20003,0,0.08771376139895765,0.11723316677465404,0.3116875415934155,-0.06421187560199194,-0.09293061992460673,0.015086715075261346,0.8778125167457123,1.5588000574113088,-0.48316011997322794,0.0,0.0,0.0,fall_side_left
20003,1,-0.13201641833808994,0.41873820971913067,-0.0991134420049201,-0.35546665175828907,0.27775661709088173,0.053357829369054366,0.3948479771833822,-2.270324439061759,1.750628478842806,0.0,0.0,0.0,fall_side_left
20003,2,0.3393845449180914,-0.05176522311641289,0.23201740554257227,0.05769867670118253,0.12730106489317505,0.17046966488958312,2.035760684898872,-0.4551891122525842,0.9486349229560402,0.0,0.0,0.0,fall_side_left
20003,3,-0.025223513345774162,-0.06667062042381793,-0.0670346660487571,-0.020750124218657448,0.06933651573776742,0.028512206246912086,-1.5383421152577608,1.1211663428648233,-0.3193444290092209,0.0,0.0,0.0,fall_side_left
20003,4,-0.026240221107628164,-0.20661030730895574,0.06342801321790842,0.0410612871622215,0.07189567438737092,0.023901435879726776,0.25299268458135,-2.0141873463251163,0.42541283106000555,0.0,0.0,0.0,fall_side_left
20003,5,0.4028648956803787,0.18298310914660326,-0.4272521852347323,-0.052515473475976085,0.05610576491706855,0.026248356053150484,-0.3565638304711512,0.3015028256580683,0.9027615705711723,0.0,0.0,0.0,fall_side_left
20003,6,0.04618228101048994,-0.40062679651697486,-0.2484601650294224,-0.20669147674893185,-0.04046332986197475,-0.06361121405317964,-0.5155315506400835,-0.22773669069024485,1.1450403545823165,0.0,0.0,0.0,fall_side_left
20003,7,0.23248135706478176,0.013266025447582958,0.011480484188287197,0.06676801256792299,0.09747985601558529,0.012750813244751646,0.648219346611625,0.3054256079418412,0.632133440166479,0.0,0.0,0.0,fall_side_left
20003,8,-0.30142621132551123,-0.0973125414687037,0.5489136364681814,0.013749261532564302,-0.13837804139582105,-0.08665425393685612,-0.003373198524859759,0.1044616235306858,-0.20701506898523211,0.0,0.0,0.0,fall_side_left
20003,9,-0.019069497946152394,-0.3676418649247343,-0.30928200304307624,0.0381729554277337,0.06116622294260775,0.01087525420296117,-1.8151974950393714,0.22468599949916948,0.7727281304474239,0.0,0.0,0.0,fall_side_left
20003,10,-0.2014343052665539,-0.23071443708009942,-0.19926262663406966,0.04520352135079349,0.05531613494923453,0.10676984382243507,0.7006027459660606,0.9847949476860065,-1.2698548062968429,0.0,0.0,0.0,fall_side_left
20003,11,-0.20790577319751613,0.07426492197051264,-0.15795350987272233,0.02739726198642087,0.1728857217424987,-0.1245989042423623,-1.45771318874602,0.7358186387327579,-0.8739258622395539,0.0,0.0,0.0,fall_side_left
20003,12,-0.047362287477760084,-0.1732853791719412,0.06235789373611815,-0.01475331112797596,-0.014967271368856234,-0.10577113590561094,-0.6195474996931811,-1.7379556380193775,0.1041592474389451,0.0,0.0,0.0,fall_side_left
20003,13,-0.08096884455433451,-0.08369197798555907,0.07281823278723651,-0.0039782316848374,-0.004270277885070298,-0.03693336615989395,-0.08037926438731251,-0.38952128475882003,0.7672325014982418,0.0,0.0,0.0,fall_side_left
20003,14,-0.10763971815760975,-0.03533976640668317,0.2496133031871533,-0.008842077681098851,0.1933955669109563,0.01654598491353038,-0.6940686694680358,-0.485115601023405,-0.5231329623532842,0.0,0.0,0.0,fall_side_left
20003,15,-0.08803258504754849,-0.1770140159827253,-0.16266697640788963,-0.04974348522410289,-0.04580400730000716,0.1601103712710743,0.35120905104611866,0.44634243995067036,-0.8261184495452207,0.0,0.0,0.0,fall_side_left
20003,16,0.296514948324659,-0.30353391563122034,-0.14606562120646518,0.27069873646132286,0.0666740680918673,0.20529671507385505,0.5726725664490822,0.1991842061786102,1.2427589541379542,1.0,1.0,1.0,fall_side_left
20003,17,0.15445893091094345,0.03922831504972647,-0.049125528408459206,0.2554189277140663,0.2862546542281408,-0.02419915230202116,0.7352988665130465,0.2721289502392448,1.3254253639512834,1.0,1.0,1.0,fall_side_left
20003,18,7.907690472981266,6.231863300365566,6.017911020904712,2.515769167938685,2.3477701055719717,1.9806805031606913,-0.338915734516911,-0.01760876829152462,0.7642620591267054,1.0,1.0,1.0,fall_side_left
20003,19,7.214322133722603,6.760939121528169,4.518091741662337,2.3345760028325535,2.3222674753109556,1.8906108216426174,-0.04780936289621557,0.46842494937163415,0.1749313694413048,1.0,1.0,1.0,fall_side_left
20003,20,4.73574239344835,5.961875942768089,6.472576589586329,2.9052523424426036,2.546439574958687,2.6969062888791333,-0.5025751553608271,1.2437157218605903,0.17135171874029193,1.0,1.0,1.0,fall_side_left
20003,21,0.057481859086670424,0.1203335668536815,-0.051409305093450125,0.006925485479712293,0.06605025910415321,0.07721322167441078,-0.950630847360197,-0.07188172361815474,1.7753261794530872,1.0,0.0,1.0,fall_side_left
20003,22,0.04941952931298994,-0.12070274779510977,0.0004259821141454692,-0.09365986165685494,-0.005007833009033048,-0.03347007468327462,0.5916486417785667,0.38626021433921776,-0.034701628970541146,1.0,0.0,1.0,fall_side_left
20003,23,-0.18960974690356064,0.021733675198383137,0.1086298182153983,0.03879521920643694,0.08670268152340171,0.09952293831903691,1.1026881562422102,-1.4174890097503667,0.5660429891036665,1.0,0.0,1.0,fall_side_left
20003,24,0.02288575831960861,0.14295710309844312,-0.35250459577409615,0.010964871115165482,0.09847506676929793,-0.2166845515930386,1.3617238481254543,-0.7211186271000265,-1.8437614586261128,1.0,0.0,1.0,fall_side_left
20003,25,0.25745925792378566,-0.11683385927563943,-0.47306095319174585,0.00523284241154768,-0.21036372843546894,0.06139648684092049,0.8881366691250056,1.486367717638898,-0.366618324771868,1.0,0.0,1.0,fall_side_left
20003,26,0.29328485195152815,0.09510612485407663,0.10866133295333759,0.1918913330711197,-0.017920936266238443,0.10006159513946312,0.9958959773581909,-0.5509934622358276,0.05051976822837845,1.0,0.0,1.0,fall_side_left
20003,27,-0.18323089625432204,0.08237306777299172,0.12419761652506058,0.07414217182205812,0.020583543744113593,0.16611251250086434,0.8848183628815567,-0.05145244195929153,0.10309743123802514,1.0,0.0,1.0,fall_side_left
20003,28,-0.33605781239448734,-0.017454458992144373,0.049906118357141815,0.02404763659735067,-0.006662898929055093,0.11790499600698112,-0.41397605959118766,2.2386221707756015,-1.288558596079714,1.0,0.0,1.0,fall_side_left
20003,29,0.4575059412208628,0.09241747977374745,0.010618054676066961,0.11307384010111297,-0.21473885843993473,0.03008893700907226,0.05152946588030096,-1.631011542859954,0.391401820581371,1.0,0.0,1.0,fall_side_left
20003,30,0.00010855821490755174,-0.41381353046002955,-0.13807282601745843,-0.11136790620613929,-0.08012601044472561,-0.03782526940678358,0.29947333123867276,2.4135130418791158,-0.9344850759646802,1.0,0.0,1.0,fall_side_left
20003,31,-0.23801385321141671,0.12432294236757638,0.4367401475882331,0.007137435381195441,0.0784291463230474,-0.13076714104502615,-0.35688186936042343,-1.7509253386653176,-0.9965767222236842,1.0,0.0,1.0,fall_side_left
20003,32,-0.2695575217917303,0.23755973931570137,-0.07496843410359949,0.28116456694965614,0.02307551086295897,0.08436772852769327,0.5601287619503181,-1.4590510530430536,0.9171896756299641,1.0,0.0,1.0,fall_side_left
20003,33,-0.2811007635952519,0.02596152685319782,0.07637611943472934,-0.0005569763210826056,-0.06445581426103576,0.07825836770975067,0.02097289316128756,-0.1285774032126537,1.112009494800931,1.0,0.0,1.0,fall_side_left
20003,34,-0.192579512032133,-0.16367957125730045,-0.08888328271869936,0.004544943565902779,-0.1356235116501096,-0.022863976574922125,-0.368496975251398,0.33693334959799837,-1.0927006099096344,1.0,0.0,1.0,fall_side_left
20003,35,-0.02071034189764408,-0.09691092558910873,0.03755257940762027,0.06318497770146705,-0.1551056179526175,-0.13528197759574642,1.468248721338195,-2.174755133251037,-0.5112032405682962,1.0,0.0,1.0,fall_side_left
20003,36,0.07068109620718371,0.10897905783317346,0.15535314143401702,-0.035272935587828645,-0.0882948776662987,0.11839493884754512,-1.3212545640114381,0.4209086307927619,-1.4632894475499023,1.0,0.0,1.0,fall_side_left
20003,37,-0.05480574048270907,-0.33613403596074704,-0.0820691628544585,0.11034609352264646,-0.1410392549644277,-0.009489599783694673,-0.46086630377556903,1.4115648449022773,-1.126793345143612,1.0,0.0,1.0,fall_side_left
20003,38,-0.2129089747736153,-0.05907046189180443,-0.0017952126947065883,-0.12097820009924411,-0.22970772583695553,0.015810961081513294,1.3685285080604703,0.9199466118519586,0.041047127661858154,1.0,0.0,1.0,fall_side_left
20003,39,-0.007137045710306812,-0.18527344273530197,0.3921493099079921,0.1330230443208943,-0.15474905389811427,0.16376224282853558,-0.32575580149509176,1.7531790847494748,0.3095600994247615,1.0,0.0,1.0,fall_side_left
20003,40,0.008273877454454199,0.05933155411344381,-0.29659831062907754,0.013098152001446442,0.10693767747962271,0.01840998978364345,0.5654571173675804,-0.42041831962617493,-1.1681768232428622,1.0,0.0,1.0,fall_side_left
20003,41,-0.17242695960967944,-0.11149595969260313,0.152428757561726,0.044174073579199884,0.08082186558363258,0.01859888677611663,-1.0348772515895217,1.9292501245738733,1.1530144454939832,1.0,0.0,1.0,fall_side_left
20003,42,0.021611303307075967,0.10160764421032309,-0.27490745417220463,-0.029799433302716824,0.04803519657698686,-0.02522005390232727,-0.9178697515804717,-0.8641560489859611,0.6279931328259379,1.0,0.0,1.0,fall_side_left
20003,43,-0.08732692509476128,-0.034117850838491025,-0.18521756926250663,0.049028311722632056,-0.04641965168384129,-0.09651805649271833,0.7516953630471008,1.1372294307282922,0.7226208377279418,1.0,0.0,1.0,fall_side_left
20003,44,-0.09601081641074279,-0.11381426271116865,0.04897872838166931,-0.013528738295968418,0.05468077049142986,-0.15352756119766853,0.546446480461673,0.1333470393498227,0.5305394079012391,1.0,0.0,1.0,fall_side_left
20003,45,-0.06732803393535534,0.17740305604924267,0.28275808817798626,-0.002682338032794742,0.02015883071930738,0.14233241946107528,-2.1598794401835892,0.0056827098486167404,0.622347529748213,1.0,0.0,1.0,fall_side_left
20003,46,-0.10321901955135979,-0.09417040897900392,-0.36771062041261227,0.022941949832964284,-0.14138396787493215,0.07864608600153654,1.4332756252654235,1.57815872766789,-0.16893931563847073,1.0,0.0,1.0,fall_side_left
20003,47,0.1459132281155863,0.1776891799100309,-0.21782516766259213,0.12129364604864667,0.07665322366685803,-0.09987722058850847,-1.3953102640575792,-0.18679671346871365,1.8984705380672953,1.0,0.0,1.0,fall_side_left
20003,48,0.24846620133381694,0.19819108437833569,-0.08146875330945813,-0.10822659670848922,-0.05923897044103327,-0.06864643680784754,0.39865479970011986,0.22939891115807673,0.3233484658905017,1.0,0.0,1.0,fall_side_left
20003,49,0.21904809296253272,-0.006668490848083481,0.3087359378076127,-0.03831396460334979,0.08270705811792425,0.11544846064694292,1.4291062539292088,-0.330247279892946,-1.969636798526666,1.0,0.0,1.0,fall_side_left
20004,0,-0.0015520478449140077,0.05106239024969359,0.04661591972715657,-0.05760963826259887,-0.12854163511714614,0.007754875079906537,45.02001696999493,0.5775254582197582,-0.255202123367698,0.0,1.0,0.0,stand
20004,1,0.385401979313029,0.1398994382786737,0.08439625091368834,-0.011759568952717618,-0.03102122923073376,-0.0789760011166461,44.07151451639511,-0.07178640388431734,-2.652869050799852,0.0,1.0,0.0,stand
20004,2,-0.28066191153860515,-0.04698867035533301,0.03498449953618045,0.14129206556996743,0.012870203221617632,-0.10655390595817801,43.151996019904466,0.03990610518883271,-0.6842135059249408,0.0,1.0,0.0,stand
20004,3,-0.11381814978806123,-0.31865668442291817,-0.19772110001626475,-0.02254648021313608,0.09465127101223261,-0.01675752406309369,42.25394666393956,1.0545101963777022,0.404727372910023,0.0,1.0,0.0,stand
20004,4,0.01264015998181189,0.12556571156912683,0.09469119960153564,-0.14828068551120946,0.027691654516256894,-0.02482258270795019,41.30757246767349,-0.9605356875844158,-0.09947878566898795,0.0,0.0,0.0,stand
20004,5,-0.09309644988587061,0.2532825593397683,0.08644149859080304,-0.04355126019233192,-0.1432276320012471,-0.17090082587903607,40.40919201410606,-1.0632995799186562,0.6731621828664854,0.0,0.0,0.0,stand
20004,6,-0.2830484755142567,0.03919177627057924,-0.15654064593915545,-0.08588960715224699,-0.028398711823099936,0.04387509750560752,39.497685763581515,0.21557303086917137,-0.8616270214819385,0.0,1.0,0.0,stand
20004,7,0.049647417307365015,0.026456329390802683,0.3596250252458692,-0.06871882901567965,-0.12266200674353046,0.1006185903455516,38.5592713702315,0.3447964467849579,-0.8665664552383099,0.0,1.0,0.0,stand
20004,8,-0.2534823890597531,-0.0036037106261198604,0.022204785646543462,-0.07930480048087077,-0.20034789520200275,-0.033166980991673665,37.615643972715816,0.36080576076183213,0.4938358275338766,0.0,1.0,0.0,stand
20004,9,0.16397249843251752,-0.05580875627729807,-0.10037683715110578,-0.08211172289282286,0.09873836955264406,-0.10850666732631743,36.73136617447644,-1.5552279792490444,-0.814577309694294,0.0,1.0,0.0,stand
20004,10,0.015715708162724235,0.15253827838026288,0.270286519865735,-0.09131714395604783,-0.04081224299438142,-0.10077383347565448,35.817817081858344,0.006565001916491717,1.4689091110428143,0.0,1.0,0.0,stand
20004,11,-0.12490426620291423,0.26029127101693555,0.2001321073979567,0.10437268534067845,-0.046816784923521385,-0.05479042285001476,34.8862301933849,-1.1765071182084024,0.906608175371478,0.0,0.0,0.0,stand
20004,12,0.07174996240119148,-0.2502303368937341,0.054975602400192794,-0.03899415986296384,0.09039215122682431,-0.04856138803828326,33.95790537353862,-0.5855321206107669,-0.7089062366331179,0.0,1.0,0.0,stand
20004,13,0.11794935397436764,-0.11900318681319966,0.25326262377698544,-0.26522799222170157,0.000162875545768007,-0.09321248803280342,33.06760312923021,1.2131386606307657,0.4952375199920257,0.0,1.0,0.0,stand
20004,14,0.15421468037263616,0.11885130754016143,0.49722739837652574,0.039980185205861524,-0.04851610181222825,0.04799035803030403,32.15316355865497,-0.32560554066649317,-0.16083425985492356,0.0,0.0,0.0,stand
20004,15,-0.25828223938178985,0.01210028710694029,-0.04206986978196743,0.05518614456310982,-0.08070703884290523,0.009366288657602929,31.231736531843676,1.2106975301367575,-1.3257352153535715,0.0,0.0,1.0,stand
20004,16,0.039043213687084286,-0.06547121987472242,0.4536062956872526,0.02019680627770796,-0.047143252660430866,-0.0006509698101354981,30.298418844256528,-0.29848920498083714,-0.7106397112834809,0.0,1.0,0.0,stand
20004,17,-0.1299686037209351,0.11884857891400005,0.13207163571502928,-0.12415438204081217,0.08317594176900357,-0.14337859339966189,29.37023959492326,-0.4323744947396364,-1.2296833244480887,0.0,1.0,0.0,stand
20004,18,0.003066017286611109,-0.11591532564471517,0.0640734081972717,0.07984661146832144,0.06078617506891709,-0.08475171732877013,28.48619951876984,1.8928631058439773,-1.2013445195682253,0.0,1.0,0.0,stand
20004,19,-0.1334837902260442,-0.015229392573870031,-0.10790397574301974,0.0066628876441110025,-0.2449053718040507,0.006022028803121008,27.54160781382315,0.4166012546870329,0.11157891553508906,0.0,1.0,0.0,stand
20004,20,0.23715169809340023,-0.17659210401439737,0.038057934182864704,0.03098924998306151,-0.20372369221475362,-0.06832376806265084,26.616732425900608,-1.1693303524750644,-0.1666626990374744,0.0,1.0,0.0,stand
20004,21,0.025864402614300154,0.46527305358668697,-0.023694611707144077,-0.0023702963369306006,-0.06993453124177773,0.07554608732266141,25.735087060075855,0.9281764307837692,-1.0258951580908746,0.0,0.0,0.0,stand
20004,22,0.141741609998365,-0.029390181999489725,0.4502762587882246,-0.11617238920906763,0.006368117421780432,-0.07305909695664162,24.795852548829263,-0.5548942348397262,2.045286480293686,0.0,1.0,1.0,stand
20004,23,0.19052951564812848,0.05492067393923747,0.006152573727677062,0.10670589948108239,0.04354380767412758,0.10843669998982033,23.870316325852386,-0.23570184885963513,0.11428026648391595,0.0,1.0,0.0,stand
20004,24,0.17288339085410853,-0.34493803121809913,0.1314729781515379,-0.029776978393241484,0.059075344734627215,-0.008893383258978906,23.005532246915468,0.7110204469736371,-1.3522767150478587,1.0,1.0,1.0,stand
20004,25,0.08093803330292122,0.18837784386669784,-0.07806270206228975,0.13906500934210075,0.10458417246149321,0.10731172235958253,22.057706388382215,-0.7342896098146611,-1.55217052438571,0.0,1.0,0.0,stand
20004,26,-0.02252053317613491,-0.3031989789833988,-0.008999361746595946,-0.01669221682517976,-0.06995664552417513,0.06607013759486483,21.120320764257357,-2.574812154050272,1.5832838182305222,0.0,1.0,0.0,stand
20004,27,-0.06884409103252129,-0.05182143174839542,-0.5096715646970985,-0.19121481965331572,-0.23483698981875242,0.10161730195073317,20.21088405447357,-0.025205265728188597,2.678606752391294,0.0,1.0,0.0,stand
20004,28,0.27523674817447974,0.015962787063524296,0.07079031545847597,0.11227229514589876,-0.14366988871035088,0.03843960409264901,19.275208772778164,0.29410471334528804,0.4199080883070401,0.0,1.0,0.0,stand
20004,29,0.196603609332478,-0.07401177436869297,0.3710518372543526,0.04407975516528881,0.18541611833516308,-0.05080971798912849,18.33299583824366,-0.021026214345975056,0.5407993643625087,0.0,1.0,0.0,stand
20004,30,-0.09617477023895045,0.07433546808594144,0.11353261589973607,0.1369815672681148,0.02779488429448405,0.018400853511803334,17.476588179662293,1.0431984291054905,-0.4946263113612446,0.0,1.0,0.0,stand
20004,31,0.033916905097588976,-0.11719010567494773,0.09088468680778962,0.057737002109503714,0.0006079975043229435,0.09239447951079072,16.506757035598653,0.345752562517483,0.4079321047200294,0.0,1.0,0.0,stand
20004,32,0.10923040861137202,-0.15118398556942686,-0.401696863083568,0.05582101216665846,0.14461209232598915,-0.05485628049209581,15.644626031265338,1.281693388108519,1.0284093501256806,0.0,1.0,1.0,stand
20004,33,-0.3668669386645383,-0.1334187014319449,0.0054171251470924685,-0.028080862984498925,0.12214780595265243,-0.05316254164564387,14.685805189368613,0.5366044359152303,-1.5086820788444721,0.0,0.0,0.0,stand
20004,34,-0.19985403693495102,0.21023501477933976,0.07566223254288133,0.07685399483502861,-0.011681462879560999,0.12035285819627375,13.768368512339173,-0.26346384192452976,0.21781035877692206,0.0,1.0,1.0,stand
20004,35,0.10996049901543961,0.22100556331756233,-0.1842460412452411,0.09752531347510801,0.029447931188329633,-0.03466455659723169,12.859306889071348,1.3650681747232656,0.06724290251020244,1.0,0.0,0.0,stand
20004,36,-0.28545090084401625,-0.058339307136804804,0.20434262949498486,0.2557655764318574,-0.09050486839340614,-0.05006177964351782,11.961834627445663,0.675754656186988,-1.223993738373696,0.0,1.0,1.0,stand
20004,37,-0.12143810963695639,0.08352257525781773,0.2893406887254556,-0.23319384304709945,0.09828219814670636,-0.19552551165076357,11.025183824815244,-1.478149761947701,1.433393923306189,0.0,1.0,0.0,stand
20004,38,0.07260341748666563,-0.2250800567184639,0.1441222836991797,-0.11470484464666696,0.11790781797816738,0.10802427290917348,10.123812308034593,0.27986093414450264,0.03007765640735005,0.0,0.0,1.0,stand
20004,39,0.3441102416203187,-0.14258068316260858,-0.21260681246895263,0.09747606576230533,-0.11860804946550312,0.020445850078014412,9.20819809475223,-0.4919286046400551,-0.4364197586740588,0.0,0.0,0.0,stand
20004,40,0.053088579137528076,0.13520975355576353,-0.18743537539499303,-0.10513121967159604,0.0240997605691073,0.11935243180573021,8.269255694700513,1.001048421255205,1.3344721171995384,0.0,1.0,1.0,stand
20004,41,-0.05004150055433619,-0.0858747744125412,-0.11594329873385872,0.013693602369942498,0.07561453667637273,0.1113871442544243,7.379287155104133,0.504195651320246,0.4945750023603182,0.0,1.0,0.0,stand
20004,42,-0.38135806148349133,-0.5806399866012124,-0.12496582981218654,-0.18541187065769404,0.04181639918918978,-0.04138254232064827,6.4272738398737825,0.6005988587029429,0.8217325757467124,0.0,1.0,0.0,stand
20004,43,0.38155582397025883,0.14937533662786584,-0.0673712497050813,0.049598740404122536,0.19227043313342912,-0.07957238060943225,5.520460258056754,0.22869206785391746,0.35819548753159197,0.0,1.0,0.0,stand
20004,44,-0.07598043772550615,-0.4382131301242617,-0.14232863813165794,-0.0455175725656196,0.09388830120734169,-0.13146586555144524,4.609738398689369,1.2654496129208492,0.15761545163608268,0.0,0.0,0.0,stand
20004,45,0.19057038015237301,0.013308827307344544,0.04989093917049737,0.16609123869863643,0.11683882621765423,0.09241881084537752,3.70103116458441,0.27777882660828856,1.3411996792355907,0.0,1.0,1.0,stand
20004,46,-0.03694035834079152,-0.15967228396359656,-0.20747279236362548,-0.1588780652306467,0.17024716786422162,-0.15482733536328297,2.778091782366692,0.3756958126236115,0.8787520108989539,0.0,1.0,0.0,stand
20004,47,0.03239853507002569,0.1215210388037382,0.2502907264189727,-0.0905463510884452,-0.06843287091418553,0.12305214745779,1.8120533812136927,-0.3609900582470128,1.4245058962624435,0.0,1.0,0.0,stand
20004,48,0.2101363621864698,-0.18199521165099283,-0.49690983865356975,-0.0415598390877597,0.026338046842916685,-0.047135033291770045,0.9008929618421152,-0.47162431019053724,-0.11799648381458427,0.0,0.0,0.0,stand
20004,49,0.3766452139312843,0.223994758407586,-0.10072315041849741,0.10746277566539916,-0.024865941533523717,-0.11701889271304942,0.004101813975247799,-0.8274396536501946,1.4683876482768212,0.0,1.0,0.0,stand
20005,0,0.18230096911526003,0.014863878207727249,-0.06092963419263903,-0.041248368155856724,-0.005815553940565044,-0.07537333526573654,0.776058918921069,0.20294903578876963,1.4773017711705667,0.0,0.0,0.0,fall_backward
20005,1,-0.10461746275229586,-0.12405068224409681,-0.06013597168862635,0.048503804476546536,0.12505212406868407,-0.07055374371256029,1.7431863974974793,-1.0206564220233385,-0.5810225115047302,0.0,0.0,0.0,fall_backward
20005,2,-0.26752547978190194,-0.04571606739199516,0.03974839332520956,0.23016970962792407,0.04360636061280708,0.0008408433868548337,1.4068340925935032,0.33320006467740965,-1.727616025506396,0.0,0.0,0.0,fall_backward
20005,3,0.2089283271436184,-0.1478837790662302,-0.1138900347058178,-0.06733486445488872,-0.010288236292146907,-0.1361822389608329,0.8567864274630632,1.7170976978162218,-0.5705810664687397,0.0,0.0,0.0,fall_backward
20005,4,0.38458443111647117,-0.03985976641016474,-0.03999621359389672,-0.015853587910994373,0.02699748231228919,-0.14122963234445846,1.3167068409314662,0.05486880725418011,-1.1415043327459236,0.0,0.0,0.0,fall_backward
20005,5,-0.015482277117568749,0.07604037598444753,-0.19760687495184176,0.02737203365318033,-0.11361052055878681,-0.19116649000874533,0.9921259004694657,0.4475784612686054,-0.8021610531128177,0.0,0.0,0.0,fall_backward
20005,6,-0.14076324512161292,0.27320222790133336,0.08546038207863933,0.03807285207234425,-0.05367670449565777,0.029098698498917226,0.483177417022952,-1.2742712958310998,0.23517689649357473,0.0,0.0,0.0,fall_backward
20005,7,-0.009308988790241716,-0.18714762963346163,0.2187966114022441,0.1071454096421397,-0.07820994420307159,-0.22166096644464264,1.1253916931365229,0.13904767175529242,0.6399079737653727,0.0,0.0,0.0,fall_backward
20005,8,-0.06270055054739912,0.175144907062546,-0.11487580280259854,0.008367622410039747,-0.03354295375947281,-0.15020132950367449,0.3703342386922699,-1.36324457948117,-2.0631157550690022,0.0,0.0,0.0,fall_backward
20005,9,0.03750456421983202,-0.11666850930059805,0.2313799877403347,0.11298906815026777,-0.09783738640824093,-0.04130336276717042,0.6229850095410578,-2.375403316976642,-0.5902716199101601,0.0,0.0,0.0,fall_backward
20005,10,-0.25632707811186256,0.01034704934836404,-0.3063262272072215,-0.16170806412542926,-0.15907669495841723,-0.007708514755479991,-0.4529402320290923,-1.1515961095006695,1.7822512433255437,0.0,0.0,0.0,fall_backward
20005,11,-0.345921603422127,-0.3330841308474156,0.22698833948807667,-0.0803697581182434,-0.009665857522097688,-0.09465474418873439,1.4347882330371124,1.4740219280572238,0.1646409524354645,0.0,0.0,0.0,fall_backward
20005,12,-0.12985135569077066,-0.07197036436799453,-0.15981256459490883,-0.03248836370707849,0.09157516127079712,-0.008452772278890307,1.1532920757419944,-0.4941091221575122,-1.4962761180639117,0.0,0.0,0.0,fall_backward
20005,13,-0.01958773041889495,0.11514422397921724,0.10218642756548423,-0.08757895200155177,-0.01304123887084337,-0.08436353250845861,-0.684963809628019,0.17781307458916457,-0.017879455942321286,0.0,0.0,0.0,fall_backward
20005,14,0.24585415829460716,0.27922766730122467,0.08408360505204551,0.011251672390479379,-0.06293557691393384,-0.0052499172063568515,-1.3527427587159102,-0.6661950346866168,-1.430685622820864,0.0,0.0,0.0,fall_backward
20005,15,-0.2561454269048809,0.22469195448492993,-0.015822031952789327,0.04262573237841549,0.22948515171470357,0.03517906899456536,1.4354513948794547,-0.6287071688468522,-0.7439880867824157,0.0,0.0,0.0,fall_backward
20005,16,0.2340055646389861,-0.030936221194560742,-0.4418878891524586,-0.1884304297859654,-0.08981985139844964,-0.015027481167100589,-0.7283583074425861,-0.076595074093577,0.8887506453186681,0.0,0.0,0.0,fall_backward
20005,17,0.2425816207096468,-0.25775623610018766,0.14418084223780792,-0.03911193544626647,-0.12777468964684555,-0.25705378139429574,0.5242440659074911,2.0667646851749875,0.5684157165531554,0.0,0.0,0.0,fall_backward
20005,18,0.33333556348060717,-0.23711331385262252,0.06779883480381575,0.008328396892268462,0.13309290736409368,-0.06688119103464253,-1.7563480853787408,3.1944765411556917,2.013517184846205,0.0,0.0,0.0,fall_backward
20005,19,0.13483072298739746,0.10739512420704819,0.11861850119904578,-0.10833130910138525,-0.056803373197541335,0.03394657866350963,0.5086424635110616,0.4953006710326699,-0.27674745811661783,0.0,0.0,0.0,fall_backward
20005,20,-0.1755234986915611,0.08555254548021185,0.21241864960244275,0.012302467058163093,0.07953691751174714,-0.006475099006868677,0.1588190788396203,0.553816390436579,1.3146018506838932,0.0,0.0,0.0,fall_backward
20005,21,0.06383814718714431,-0.10544611452346025,-0.004949266710262544,-0.09338975260921127,0.035540763181676385,-0.13849555706156044,1.434337903636196,-0.03534087719395515,1.4057271438655263,0.0,0.0,0.0,fall_backward
20005,22,-0.29418444877973193,-0.0021076578970514424,0.0728509217023839,-0.0659243418530851,0.1599410759876881,-0.07408046424500843,-1.331280752707681,0.7143013138231282,0.32710132947691295,0.0,0.0,0.0,fall_backward
20005,23,-0.16038830207503105,0.11131426785279978,-0.18842300938709303,0.012277169189498187,-0.03718389679269922,-0.06656129677268771,0.185688885806468,0.31876438670884816,0.7497637148295133,0.0,0.0,0.0,fall_backward
20005,24,-0.14109403542090956,0.1256171176558069,0.1307739145325452,-0.0328557858624593,-0.12534457069599347,-0.09044700108536324,-0.8760314586539137,-0.3542031837982623,0.1866168388802983,0.0,0.0,0.0,fall_backward
20005,25,-0.08744531982697293,-0.20464919305433757,-0.1404274528019716,0.032962767545895166,-0.08607195676608687,0.014219989606642756,-1.8487754191105126,1.351902650321093,0.7109281388633574,0.0,0.0,0.0,fall_backward
20005,26,0.26330849784593024,0.2934961276820188,-0.07412051570864878,-0.1193783022454512,-0.1442228383152,-0.022678306153321948,-0.8345921493536507,1.0402655369211833,-0.059011107196208765,0.0,0.0,0.0,fall_backward
20005,27,4.7260696175573145,3.812972109196541,5.365755669741967,1.964791135457464,1.7858671940907216,3.022644061263662,0.8142837168890249,-0.3342715630069379,-0.9290804402404571,1.0,1.0,1.0,fall_backward
20005,28,5.14010860009876,3.4616435075451357,5.137166435869794,2.8888464373554803,2.218238688873753,2.1556901724940607,0.7896569240994448,-2.786391941202113,-2.1493160879359707,1.0,1.0,1.0,fall_backward
20005,29,7.738713850261076,5.497972390325591,4.827859273712899,1.964743924612193,1.886317946306,2.0208449822336734,-0.6985057646658858,0.0436087343713945,0.7694320566503952,1.0,1.0,1.0,fall_backward
20005,30,-0.13546106235175173,0.30014349478883984,-0.046635250853411386,0.14949562634608346,-0.08717335383729274,0.006515663634111974,-1.2514701174677307,0.01927775433005522,-1.4651179054215298,1.0,1.0,1.0,fall_backward
20005,31,-0.07700453994345974,0.32563563059902484,0.0017207708190155719,0.010176735112302219,-0.22661488085934606,-0.13849755101592137,-0.8123669158879718,1.6029276943032245,0.871964856526343,1.0,1.0,1.0,fall_backward
20005,32,-0.08714169952747589,-0.014130429952080688,0.20235884550100627,-0.030734861618611005,0.05261269872336323,0.18014101979293545,-0.33504110807286214,0.07693579547389211,0.2596782024052729,1.0,0.0,1.0,fall_backward
20005,33,0.27666345573232537,0.08842702272993228,0.20566562263273147,-0.12282207584443061,0.16502239736261723,-0.09397358749372567,0.3200871498724962,0.870817894517169,-1.6895949105193149,1.0,0.0,1.0,fall_backward
20005,34,-0.007227428709088263,0.12054471854456544,0.09953546655400267,0.10931474993897633,-0.07180017547959193,0.16671935168102536,1.475907407892895,-0.23542562184293117,-0.38311429604554925,1.0,0.0,1.0,fall_backward
20005,35,0.3873567214451631,-0.19299271694263417,0.07071767675069564,0.10001513925361434,-0.003969188152090738,0.17848100843212525,-0.15965160286759056,-0.16876978430638837,-0.8849873937713637,1.0,0.0,1.0,fall_backward
20005,36,-0.3213380442221997,-0.1349690657471116,0.0768112071588683,0.13149195921963813,0.0612764303170292,0.17295025938514927,0.3359974761100147,-0.42351749483500006,-0.6454872717853535,1.0,0.0,1.0,fall_backward
20005,37,0.19602273927240862,0.15021459372156215,0.05740307446200291,0.0020834924937252128,-0.05810921051511303,0.12256451511486477,0.8764069007566638,0.09175352079494606,-0.07056674422755232,1.0,0.0,1.0,fall_backward
20005,38,0.030748444697552973,0.383158458870257,-0.19964702222058361,0.06766012060094279,-0.06436440853376063,0.042125132453473345,0.2280269129198683,-0.010430202423789413,-1.0918868278761604,1.0,0.0,1.0,fall_backward
20005,39,0.27207079813932816,-0.09868863515679797,-0.029521328543806742,0.03099804979767431,0.004225366748168952,-0.0641736815177411,-1.7198869494476559,-0.5655904414039561,0.9263575320878563,1.0,0.0,1.0,fall_backward
20005,40,-0.05057030196640366,-0.47889185814041013,-0.15542109829598172,-0.011616357803537543,0.029039656412533324,-0.032533692785305254,-0.40491731447219875,-0.16669956716871026,1.266746810529829,1.0,0.0,1.0,fall_backward
20005,41,-0.255022249483324,0.03662866254502609,-0.05289685699477073,-0.0522480542464002,-0.20618272729549092,0.06291137181235482,-0.02794473261127861,0.14648729960905155,0.7743448590510371,1.0,0.0,1.0,fall_backward
20005,42,-0.12258751638420036,-0.06066269091819361,-0.3568456726104819,-0.028287997745177013,-0.13624511923519875,0.18361390452066192,-1.619052769667268,1.1689795360790116,-0.21799337300937807,1.0,0.0,1.0,fall_backward
20005,43,0.09873606108800226,-0.02939304692828862,0.21311413072934982,0.09172870548215574,0.0708087185587597,0.003885687460358868,-0.3192419241201674,-0.5111241636814159,0.1410930560730823,1.0,0.0,1.0,fall_backward
20005,44,0.09428380344892245,-0.3077163391411387,0.41231942700394736,-0.20525337012948683,-0.15783012768609844,-0.00848926362684739,0.47832834334200836,-0.1608283885836276,-2.0508077132474347,1.0,0.0,1.0,fall_backward
20005,45,-0.4720112437471872,0.3446094294890488,-0.09110172598476128,0.04099620903672683,-0.0867675238216391,-0.11936532327415535,0.8726649740451272,-0.08275952704666747,0.47207125615616796,1.0,0.0,1.0,fall_backward
20005,46,0.0029971777715802617,-0.29851355181380207,0.01750123898239629,0.18205333448556332,-0.03699900764278414,-0.004930954747105094,1.4778526910700043,0.9687127096195493,-0.08060935127523762,1.0,0.0,1.0,fall_backward
20005,47,-0.30068911952388866,-0.3839094241868261,0.3335977410897494,-0.18402014337836786,0.12098015969474511,0.03569700133231603,0.4187684915580076,0.46505619729800496,0.6690806443532499,1.0,0.0,1.0,fall_backward
20005,48,-0.15848683697347862,0.06867898934953652,0.3188591922534704,-0.14708659863876067,0.05657212976053315,-0.12752162802260245,0.8286267959255363,0.25587236451450823,0.017770822248632905,1.0,0.0,1.0,fall_backward
20005,49,0.16321737109641288,-0.2466223206876782,-0.18850408964953244,-0.25750485413963414,0.027166999158318814,-0.037941405431933875,0.42898147729343156,-1.4065866861538292,0.035538933366013103,1.0,0.0,1.0,fall_backward
20006,0,-0.3610123895361108,-0.10666278911932739,-0.11098315790437255,-0.17167720817914656,0.09929389694291949,0.05278838765116298,-0.4867079590316771,-0.29991479116708575,-0.016422191095553054,0.0,0.0,0.0,fall_side_right
20006,1,-0.22873331427195331,0.021304847074374723,-0.1285014767458557,-0.025796533222468526,-0.05496639939931337,0.03216798474040069,-0.6015366063672103,0.09601501791769639,0.31287318517245927,0.0,0.0,0.0,fall_side_right
20006,2,-0.1671060998536073,0.35202784484279775,0.3878844186479436,0.19208578189922076,0.06206965364407975,0.1760947132010586,2.1345199021701178,0.580123840864304,0.18600468458026898,0.0,0.0,0.0,fall_side_right
20006,3,-0.05274913756284437,-0.039734293296167955,0.04258842392038155,0.10439145583349232,0.008309548933188004,-0.18240279800056236,0.6185244650015529,1.6706654329710884,0.1360486895657582,0.0,0.0,0.0,fall_side_right
20006,4,0.08759777990988972,-0.0704355746723331,0.0773420659299484,-0.09647884202239669,-0.1389718568953774,0.16732430734963125,0.7630374179527943,1.6340057242398545,0.06069178099661375,0.0,0.0,0.0,fall_side_right
20006,5,0.16543013533568174,0.0855100118540475,0.11766256460551405,-0.22832742817615714,0.061641287988229196,0.027873093082388348,0.6492349467557806,-1.0834650803231347,-0.5351970438781244,0.0,0.0,0.0,fall_side_right
20006,6,-0.04251069466129629,0.0020253834644715016,0.1039415871924848,0.28989115164259593,0.044233434833424415,0.10298257745421929,0.12132230598501026,-0.2891336992470687,0.6137085129012576,0.0,0.0,0.0,fall_side_right
20006,7,-0.024619639906892903,0.03915357821544827,0.12041819940446155,-0.012195293658158388,-0.10572957678509491,0.18159653766060213,-1.6365501492013637,0.6167981177589883,-0.5174360028796673,0.0,0.0,0.0,fall_side_right
20006,8,-0.16729322418196252,-0.08833394826224607,-0.14240942680909852,-0.013360983752952041,-0.06993137444400041,0.052632688458347815,0.36230277340872247,0.6633272853746672,-1.6803189373081917,0.0,0.0,0.0,fall_side_right
20006,9,-0.3778872337332079,-0.2837176983735432,-0.19815890217103327,-0.01529758135995664,-0.011734421548385226,-0.16734973276793116,-2.7001320452195214,0.08102707688976872,-0.36263898763382557,0.0,0.0,0.0,fall_side_right
20006,10,0.059218095264943205,-0.3745029033873263,-0.25979396565599244,0.15781134738448144,0.057858822697551486,0.10363641397347392,1.7175440039396443,1.197167037466866,-0.24007937713007382,0.0,0.0,0.0,fall_side_right
20006,11,0.25172799080109454,-0.05155820361272052,-0.08995966881166442,-0.10013725453563214,0.15598940504179135,0.01093641925676421,0.7718949910804956,1.3178513182509775,-1.3759839794130189,0.0,0.0,0.0,fall_side_right
20006,12,0.0696084606074435,-0.11378876357127472,0.11722034771576276,-0.09400123964876785,0.032687702029661564,0.016508835691281993,0.1750397743057841,0.0668893230815188,0.0335167507173741,0.0,0.0,0.0,fall_side_right
20006,13,-0.1575511443110359,-0.09409220329698345,0.15618938351698247,-0.03463141327496158,-0.08009714742798982,-0.1229324736326497,0.7673510973462764,-0.9737254099259747,0.2589944221563841,0.0,0.0,0.0,fall_side_right
20006,14,0.008095417873782831,-0.2858717212196619,0.08529453377255655,0.14213203634006236,0.015643705713011945,-0.17204715979360424,0.6039744904310698,0.26203895345355455,0.2354419227701323,0.0,0.0,0.0,fall_side_right
20006,15,-0.13116205071148201,0.13894911769986415,0.06676795130703081,0.18117183379203117,0.037816908905639164,-0.10398791896282181,-0.07496392799885498,-0.17073572167468973,0.9658487889802343,0.0,0.0,0.0,fall_side_right
20006,16,6.318023369773001,5.6062905811694925,5.062300457392334,2.1758698146692788,2.7752830356920795,2.4327394624176373,0.6061937182066927,-0.09979787881008824,-0.6205609451354345,1.0,1.0,1.0,fall_side_right
20006,17,5.499460418303048,5.748201598108279,4.010086627703692,2.533496493952247,2.4656641054743456,2.347641474850508,0.16794822972145196,0.013219164854611332,1.3837146001331246,1.0,1.0,1.0,fall_side_right
20006,18,5.068628392751994,7.361989185531879,6.206222675282383,2.677441174544451,1.783758597102989,2.8076213082971924,0.5954652804434242,-0.8281561676650935,1.4078714110135975,1.0,1.0,1.0,fall_side_right
20006,19,-0.14300639263672252,0.25843272049609395,-0.46169293595923794,-0.2608013993725873,-0.05312409622530848,0.1310444032940561,0.38590761868610823,1.315383906305366,0.7162150676051593,1.0,1.0,1.0,fall_side_right
20006,20,-0.22425051639012203,-0.10506658242063012,0.41716662943407284,-0.10284173089593737,-0.07370344671955234,0.2050071118994844,-0.06971411568434757,0.45176629063887636,-0.18828558684033297,1.0,1.0,1.0,fall_side_right
20006,21,0.16707864812376186,-0.14443750615195017,-0.3133686588708682,0.033164553412478544,-0.047347107790188574,0.0689397590137764,-0.8048416389719735,0.7739211238677,0.16621596707880087,1.0,0.0,1.0,fall_side_right
20006,22,-0.06466382175950525,0.2927395125410367,0.01975869067519686,0.08245493863175735,-0.09349795320052359,0.1380998596521238,0.07901689401087385,-0.37881659076507807,2.086103835080047,1.0,0.0,1.0,fall_side_right
20006,23,0.11214020522944021,0.04637948032213042,-0.14443304376276464,-0.061338907249772,-0.09772567075441571,0.057933433416145735,0.7230542187573763,-1.4574485048105472,-1.0666036246594466,1.0,0.0,1.0,fall_side_right
20006,24,0.14820986307084283,-0.3854128542438001,-0.11447220347534778,0.17016576704163433,0.06937334110833732,-0.08675305251537554,0.45294044917638937,1.5187055257692688,0.5382355240227326,1.0,0.0,1.0,fall_side_right
20006,25,-0.15732769169961294,-0.41562359565476287,0.1471787759772028,0.15793147917419367,0.04154166533936012,-0.10113192087702451,0.7615593934850866,-0.4635008613184772,0.5627098803053168,1.0,0.0,1.0,fall_side_right
20006,26,0.07163782275062716,-0.23725907605558708,-0.025884887251544822,0.1863642272599396,-0.0933710548597454,0.05862596945141359,1.2058052588926502,-0.9371418826420478,-0.920589739100341,1.0,0.0,1.0,fall_side_right
20006,27,-0.27159088903388384,0.0060718410690428215,0.13557710532927764,-0.14602498976254905,-0.18368090222923086,-0.07483703143851637,-0.11535859135646262,-0.604959988679639,0.4696426169550798,1.0,0.0,1.0,fall_side_right
20006,28,0.05954713619824819,-0.26696221638415024,-0.003567482924550811,0.05833712155040244,0.03304068788486284,-0.05944940198779716,1.3307372204929044,0.054147717368700415,0.02658814251773571,1.0,0.0,1.0,fall_side_right
20006,29,0.19310429326653267,0.15937723612037746,0.21589140370326165,-0.030605862545253687,-0.08756095577786867,0.059056906422870016,0.7765759927421197,0.8181640256629865,0.48066212234948896,1.0,0.0,1.0,fall_side_right
20006,30,-0.0023231354502590736,0.18784047455055086,0.04089463404504404,0.056673091769435066,-0.038663076563309404,0.07396281981292643,-0.4279662168576113,0.5304239927976001,-0.7588323176222749,1.0,0.0,1.0,fall_side_right
20006,31,0.4501006068675831,0.3274293164763009,0.16019087798605938,-0.05412740627707176,-0.022082893415642367,0.20568425908625396,1.2162661956322145,-0.751063613467149,0.4453291964339844,1.0,0.0,1.0,fall_side_right
20006,32,0.23595791584719952,-0.10751107310972238,0.3155567766468114,0.10447597819308431,-0.04953403904340626,0.0882956648444506,1.2419728042074007,-2.3695024348560487,-0.5824174279307686,1.0,0.0,1.0,fall_side_right
20006,33,-0.41453464746223806,0.14706527774661063,0.00243547745630851,0.12972489826295086,0.05178311518261596,0.09380541772779255,0.7529161556493887,1.9168396549307762,1.8310886816735148,1.0,0.0,1.0,fall_side_right
20006,34,-0.10167364803984948,-0.2041313204913435,-0.32488627946713045,0.1887088038869043,-0.04152560394298832,0.010897986216855289,-0.13006654836958986,1.7850807858674127,0.4464571338346521,1.0,0.0,1.0,fall_side_right
20006,35,-0.21990281809156464,-0.0007980672269237397,0.2510420829035347,-0.05671773952017837,0.09789824290356727,0.02621332862798121,-0.09880041269965718,-0.4825462679671761,0.38988905866308715,1.0,0.0,1.0,fall_side_right
20006,36,-0.1210423797135093,0.0066505486115316925,-0.1759153031540644,0.12561493744715754,-0.06569714734094181,-0.020847260513987612,-1.3079044249390164,2.7691910783360263,0.06899509854741175,1.0,0.0,1.0,fall_side_right
20006,37,0.21535612569587373,-0.07309230118704968,-0.16854593538271695,-0.06599056506973648,0.08433366956919017,-0.1312353365595212,0.09182772581663182,-1.0118658797937905,-1.233708130565198,1.0,0.0,1.0,fall_side_right
20006,38,0.1269241156036575,-0.1868350053352696,0.2311903937302578,-0.08179812328619776,0.03652971341633343,-0.011971189528349177,0.45994977654998004,-0.5915020055188746,0.31110021568954965,1.0,0.0,1.0,fall_side_right
20006,39,0.2427529913422611,-0.4281615812057161,-0.023920991062254995,-0.09463014240390719,-0.07965965992350552,-0.07535998411487847,1.0007602626405094,-0.5163506780657813,-1.3948978225558486,1.0,0.0,1.0,fall_side_right
20006,40,-0.0486225178610569,0.024263566857475858,-0.1036883296629811,0.0970916889959785,0.0839604754965329,-0.08623771610096775,-0.6263574454104146,0.7859660457980858,0.458005990584064,1.0,0.0,1.0,fall_side_right
20006,41,-0.0020555308402416504,0.3285312665784229,-0.20784469416249562,0.18226765717381874,0.11306018809332788,-0.009535165065078073,-0.0754550494991808,-1.3294018616402952,-1.2534101563985505,1.0,0.0,1.0,fall_side_right
20006,42,-0.16870506924798273,-0.18864643074068657,0.29307634473680233,-0.021688498164389516,0.017217373468710384,-0.045777349649131036,0.6008241165193148,1.0891594984270985,-1.0669584237790433,1.0,0.0,1.0,fall_side_right
20006,43,-0.07357141398301836,-0.10941736002551229,-0.07594941405446916,-0.23069279690043215,0.17970347558948258,0.17839642685660925,-1.187876076895097,-2.3406214734349606,0.3416816514976929,1.0,0.0,1.0,fall_side_right
20006,44,0.03709608082794755,0.34102839460518775,0.5215553351693171,-0.09530606563458582,-0.036535980952706215,-0.0915829103784786,0.027605852505104708,-0.7726529836339964,0.203833987716026,1.0,0.0,1.0,fall_side_right
20006,45,-0.1356774722364199,-0.28763217573832534,-0.032310585894861105,0.08570919583484808,0.0019471193573278624,-0.023588424641556364,0.41472617723188965,-0.1715262549976079,1.407382693176951,1.0,0.0,1.0,fall_side_right
20006,46,-0.14491543142698757,-0.4627133623973779,0.16298700118300527,0.05306574287849994,0.015115703896300176,-0.05615427241830723,0.8444385343970247,-0.8175158875374543,0.3995009783068759,1.0,0.0,1.0,fall_side_right
20006,47,0.14606660867649213,0.35312880221665927,-0.1177884861976362,-0.008722403825638651,0.012791093343797265,-0.03831929665181225,-0.7014097436653642,1.3256095573161208,-0.43916929571520796,1.0,0.0,1.0,fall_side_right
20006,48,-0.08059311621149558,0.06144469932484677,-0.3780722775363407,-0.057561767192810025,0.07723606911468464,0.09528205438990349,-0.0013414715253198817,1.5227082315982254,0.09590676019183197,1.0,0.0,1.0,fall_side_right
20006,49,0.30508309980351733,-0.0587833603441474,-0.18215193492269804,-0.061345386911746846,-0.05130038741209779,0.04168641108350597,0.6440089148355149,-0.48317057473400593,0.5491229867648836,1.0,0.0,1.0,fall_side_right
20007,0,0.33996590641440444,-0.06780438297195741,0.6000715231658184,-0.17678986575087213,0.02179711438597553,-0.043897641396214514,44.998824176394635,0.3704403016676417,0.9280736391602724,0.0,1.0,0.0,stand
20007,1,0.3429393843824436,-0.5722378839368234,0.20783711695200846,-0.020862146852350952,0.01585279809997451,0.16121576928863457,44.06379664757421,0.34964795727245873,-1.0359716697357793,0.0,0.0,0.0,stand
20007,2,0.06446876136753009,-0.14235723060683214,0.2746444200814745,0.008022342439733127,0.11465892348571993,-0.009824122460648682,43.15887852809174,0.004290838950436646,-0.10070872935470078,0.0,1.0,0.0,stand
20007,3,-0.25583766016186765,-0.3762958151064875,0.04631895380546911,0.09109643330456002,-0.02190221312312956,-0.04875721192112345,42.24649533125293,0.3809013894922317,-0.18537698784195378,0.0,1.0,0.0,stand
20007,4,-0.19939722881302896,-0.043195355760201566,-0.00395592375754001,0.10349984849244123,-0.09755921381015548,0.06725377795645797,41.29447325532435,0.5357828639708793,0.8609708384052268,0.0,1.0,0.0,stand
20007,5,0.3184383573912222,-0.0019448969230247692,-0.5042262994853395,0.10413728810746103,-0.11880614627696989,-0.16648865550579872,40.426886876386405,0.15653617424110572,-1.2453152897217217,0.0,1.0,1.0,stand
20007,6,-0.11045558058959205,-0.1376752035359316,0.2624974546733154,0.15559321584817412,-0.08476691488907184,0.24425569569143513,39.49929538045348,-0.35777272581233477,-0.1316716311360621,0.0,1.0,0.0,stand
20007,7,-0.1800884583258719,0.1889185785332118,0.19790856409633928,0.01585335371036287,0.13231286823706365,0.010432732202116983,38.59389293889051,0.5202577177353432,-1.3777423916067968,0.0,1.0,0.0,stand
20007,8,-0.06329654605406347,0.1357247070397437,-0.3900188550786338,0.14211859803512458,-0.054224099492804045,-0.05156686081513792,37.661140271375295,0.8078170275495058,-0.35819300343104166,0.0,0.0,0.0,stand
20007,9,-0.0805701467493104,0.06643139309200893,0.13414383498703086,-0.05655907700611721,-0.12042695175947857,-0.16065950870704881,36.71124368198324,0.7969945499108523,0.07975074653848163,1.0,1.0,0.0,stand
20007,10,-0.381901536324887,0.0948716433079654,0.36517741492459493,0.04683497695556959,-0.0073247946981243525,-0.1519194381170183,35.809341142940895,1.9405328411444622,1.0960831998987073,0.0,1.0,1.0,stand
20007,11,0.13745806736360924,0.17114277189860208,-0.12187082985207799,-0.14834197620025477,0.0907246962371803,-0.038099958111889,34.897637896792595,-0.3438124993457812,-0.17380599708261524,0.0,0.0,0.0,stand
20007,12,-0.19115938416576778,0.0038976313143669027,0.0247145288333301,0.006346513084730786,0.05014972611462725,0.08688911438088122,33.940028238835524,-0.16267790782698902,-0.31277997186437756,0.0,1.0,0.0,stand
20007,13,-0.05604725201139264,-0.25924537884093557,0.21748061201083638,0.037182580556143235,0.011937343773123561,0.05871103920230211,33.06605166436378,0.9057439653721557,-0.5707654039222368,0.0,1.0,0.0,stand
20007,14,-0.12802200500467278,-0.210072418196855,0.12253270690448476,0.13189840618124618,0.04332517452388065,-0.011009550370932993,32.12586781891317,-1.1708840652104626,1.614824168034812,0.0,1.0,1.0,stand
20007,15,-0.001198844916575039,0.4369121337719185,-0.015643776135539897,0.1852651107097542,-0.163384877464418,0.10918193695304992,31.21700907582091,2.320903367425791,-0.6557770077354602,0.0,1.0,0.0,stand
20007,16,0.0963697024237504,-0.3391319689054041,-0.1888545715651089,0.013062951637612882,-0.028045777318591335,0.04570500905818374,30.3152787456393,-1.4067411678411939,-0.09358662905667785,0.0,0.0,0.0,stand
20007,17,-0.09740043399894224,0.12037019693739094,0.29893654427731986,-0.04114624597733657,-0.07558097227230552,0.14257564641490672,29.414732721983675,0.22195999131371802,0.5237577518259509,0.0,1.0,0.0,stand
20007,18,0.3386274998848286,-0.24081358487682186,-0.47523318659752994,0.07975374525684664,0.0236191547621053,-0.19094190632690472,28.471090071124294,0.5845061369514569,-1.1931172696904155,0.0,0.0,0.0,stand
20007,19,0.04810315371818201,-0.03150349880743916,0.5038481397563374,-0.0027869116034329247,0.18502631240066594,-0.04670220821230502,27.52875178603791,-0.9641411243976246,-1.0053770311348502,0.0,1.0,0.0,stand
20007,20,-0.048302275656344665,0.18775278044504717,-0.12092393838818605,-0.06244527825002661,0.11657312198016584,-0.06307974955171894,26.643621070326265,0.04496649508710163,-0.9400415068050688,0.0,1.0,0.0,stand
20007,21,-0.012577341643280279,0.12912869796795626,-0.11041917318570167,0.10858601309122368,-0.11975523302142306,-0.011637573639806924,25.690134226651338,2.6932242657232064,0.003532127003875176,0.0,1.0,1.0,stand
20007,22,0.12230803260086268,0.2917397879344787,-0.017500280585300898,-0.06100949324986356,-0.17514513415769478,0.04916253119414722,24.785018684400505,1.6442607614618547,-0.2323970484389425,0.0,1.0,0.0,stand
20007,23,-0.28732803277396357,-0.48747661688066424,-0.008945609539235906,-0.08301298688431565,0.08650990731597781,0.02845989923267252,23.89079445512731,1.2529186285915437,0.5425738449100428,0.0,1.0,0.0,stand
20007,24,0.06974897135086126,-0.011752072217166926,0.17891787183211266,-0.08638984706605315,0.06537666139884508,0.11707066196799337,22.949832313689043,1.0061853653577637,-0.7589795186522696,0.0,0.0,0.0,stand
20007,25,-0.051881763499266674,0.23964616028071103,-0.1987948659597509,0.05886607025749484,0.016332993789070216,0.0654481560579131,22.065656110506488,1.0800027292574068,-1.9411691728674847,0.0,1.0,1.0,stand
20007,26,-0.061266367939333974,0.02357126675409829,-0.11260581829704133,-0.049090576385492815,0.36737233732526475,0.1403694715564984,21.14432097035507,1.6050521018056954,-0.6487724712555415,0.0,1.0,0.0,stand
20007,27,0.10526152313548331,-0.0032303010349259732,-0.10947315531315671,-0.16819433477049847,-0.16661742749577024,0.12184717160126535,20.180178141318965,-0.13914173940424288,-0.7842975397506274,0.0,1.0,0.0,stand
20007,28,-0.32085764382633397,-0.10010929066060888,-0.39665800626519965,-0.05894449356309265,-0.02777785432931204,-0.18572707392427676,19.266449685206037,0.8553140394793203,-0.7381628926491716,0.0,0.0,0.0,stand
20007,29,-0.13601764669701605,0.24394111890098133,0.024720933041781593,-0.07631226684015707,-0.10163631128117534,-0.021198134226033245,18.372169036702434,1.9293882749439026,-0.3279983859388205,0.0,0.0,0.0,stand
20007,30,0.011548232017631641,0.3681739672321025,-0.08791934259831974,-0.12975028290706178,0.030777230754619692,-0.0871854516114989,17.438463111860447,0.4740308559790913,1.544881283320114,0.0,0.0,0.0,stand
20007,31,0.18189397300244944,0.0708638390796764,-0.14861652832419547,-0.046520428465112174,0.00751226075677016,-0.022351266951830172,16.51028297747702,0.6180107113066109,-2.2260633097359266,0.0,1.0,0.0,stand
20007,32,0.16999670677548284,-0.1108748864194642,-0.07561619485239912,-0.024904602177103725,0.0871384194376689,-0.07970265848482805,15.595709738649791,-0.19763705418197952,-0.12806566120718907,0.0,0.0,0.0,stand
20007,33,-0.12409799533935727,0.2508719987762448,0.016349139583995868,0.1586227829145698,0.0787533278996632,-0.027205980014600194,14.67748319431516,0.7240029320856834,0.4802396889569749,0.0,0.0,0.0,stand
20007,34,0.03604794046986824,-0.10765526744426342,-0.0181630491751863,-0.024397201976764912,-0.0062158198480347935,0.11210572944442969,13.742752887660608,0.04325592688178343,-1.0345032994944527,1.0,1.0,1.0,stand
20007,35,-0.20667413520192077,0.22062304398962534,0.23262497410740743,0.12537348467974532,-0.08401830577499508,0.025775589740588457,12.85281827283268,-1.054456655796001,1.0806723549287094,0.0,1.0,0.0,stand
20007,36,-0.254231652166701,-0.11172103682607798,-0.10937717485395967,0.0772056417272981,-0.09282122497568242,0.04796433208492264,11.951958490157425,-0.6483240922281096,0.23631486442395003,0.0,1.0,0.0,stand
20007,37,-0.12602346678754814,0.005241669810143158,0.06675193111732583,-0.03192005014911466,0.005718989546760318,0.18677345307069998,10.999417054729726,-0.16248896505835417,0.09214676482792539,0.0,1.0,0.0,stand
20007,38,-0.21218390238571316,-0.06456593839829876,-0.07957745401161549,0.14288800928466763,0.21176398185928147,-0.06186524053610417,10.107191018839808,-1.4245843260068694,1.36904100084582,0.0,1.0,0.0,stand
20007,39,0.16318132009125833,-0.2464872090097855,-0.11688887013891647,0.05330679026249898,0.003560977573051292,-0.17496248127766603,9.238663809371898,0.7743244150754427,0.1306373107973326,0.0,1.0,1.0,stand
20007,40,-0.13806963766735153,-0.33516471314265767,-0.41654111693309803,0.05492291554240249,0.02533573690237912,0.18836991711215817,8.259307035810494,-1.5485501281465752,0.9110983471739612,0.0,0.0,0.0,stand
20007,41,0.09044783010298227,-0.20455484942775434,0.24956161298197702,0.02759593664064361,0.05966491630247889,0.07027480702769755,7.3379193890255525,-0.2524760776428544,-0.49852421265814373,0.0,1.0,0.0,stand
20007,42,0.09498750030629637,0.1120334234839317,0.05992681326707582,0.04448338607060317,0.2082190978743675,0.08481339845249666,6.424183236596464,0.4146539847661745,0.6009759762348129,0.0,0.0,0.0,stand
20007,43,0.21023373130454673,0.2541012488400324,0.19081850767066583,0.03722244734236267,0.11494103493982172,-0.057367074266618835,5.513633890831177,0.1537614364370866,-0.7184977332509035,0.0,1.0,0.0,stand
20007,44,-0.05282590226026519,-0.19585220868165493,-0.10277481718605973,0.010424225700015857,-0.11654457127907918,0.06119881382454066,4.596478873117293,-1.989238374953292,-0.2608093588677026,0.0,1.0,0.0,stand
20007,45,-0.25530773570199095,-0.5057071158025934,0.23233561138161643,0.1453380212388047,-0.037145304377566905,0.155511988266152,3.6876447057709063,0.13645389845922556,1.030121480467587,0.0,1.0,0.0,stand
20007,46,0.10590447614163935,-0.3195641973797083,-0.2037985783425216,0.2162223074685844,0.12315611109175278,-0.015628748946913622,2.761444893211292,-1.9223605704855449,0.7055733682404511,0.0,0.0,1.0,stand
20007,47,0.06055660655867692,0.02880512440713224,0.022227462036170202,0.09165678020931343,0.06740548756609319,-0.06931494302838581,1.843905235579265,0.7179913018271328,-0.01679273435412501,0.0,1.0,0.0,stand
20007,48,0.015853249255788043,0.09711268278601845,-0.6035929498658958,0.03041438017784786,-0.029893411265958306,0.016211470773668232,0.9177777030374371,1.14577844657714,-0.7510837372736554,0.0,0.0,0.0,stand
20007,49,0.038785899004254415,-0.2140018327740036,0.04548571327708178,-0.0761205048653562,0.184487153151572,0.06905210242657081,0.01035183295873825,0.5397241301079401,-1.3731496334340851,0.0,1.0,0.0,stand
20008,0,-0.12140975314386536,-0.12074676509790035,0.03425270302414452,0.016905272793677005,0.01856926272147097,0.031016795947298042,2.9358967544426444,1.202003051823645,0.21572126460570562,0.0,0.0,0.0,fall_forward
20008,1,0.22983300416962937,-0.27431216575075196,0.13586012372078746,-0.11119551889528287,-0.06549118082922342,-0.14953829798368093,-1.3535599383214842,-1.5066725809551635,-1.4175554125472423,0.0,0.0,0.0,fall_forward
20008,2,0.0997558127068409,-0.28065942566052166,0.10933846696664132,0.18104520618126302,0.04356910997331334,-0.04183532498413026,0.6141188101802075,-0.33104541581350716,-1.0929492219096157,0.0,0.0,0.0,fall_forward
20008,3,0.04274684540789621,-0.0025692289463151025,0.08396919473277402,-0.07460616972541373,0.028528984264099222,0.07803504146648765,-0.7069602900218231,1.2251960920230858,1.6066605122804116,0.0,0.0,0.0,fall_forward
20008,4,0.29105474121595726,-0.04725233713271969,-0.1432145076034209,0.0018063078805413812,-0.0703600882493786,0.09521978052487601,0.9001173012348749,-0.08141673781000737,-1.6168381606337452,0.0,0.0,0.0,fall_forward
20008,5,-0.2543978723925649,-0.01915182273148702,-0.2680710227253093,0.006844233801267497,0.04312192400423778,-0.062316313106308856,-1.352175741018682,0.6263641555737816,0.3549980021540406,0.0,0.0,0.0,fall_forward
20008,6,0.02934950864734214,-0.17000007403986533,-0.04951482005394364,-0.12636636151438496,0.18705194554050433,0.02184883039977717,-1.1798025510336638,-0.5942298787611154,0.7009036038851795,0.0,0.0,0.0,fall_forward
20008,7,0.011626466207168146,-0.0968304100581186,-0.4901341738209418,0.0029878361504779224,0.16800979731664742,-0.17605407914604912,1.4777100786821693,-1.8390258820376735,0.017966891504818585,0.0,0.0,0.0,fall_forward
20008,8,-0.17090847968255046,0.33315033614215855,-0.09296945186709078,-0.15371587786170637,0.0351649406061439,0.21053990935460246,-0.42572548717605524,-1.5004319606404597,-1.216073498643607,0.0,0.0,0.0,fall_forward
20008,9,-0.06953928830321353,-0.3768231031388217,0.024225309268423992,0.1819985966960871,-0.027626125758524724,0.07687880210755998,-1.612282214853488,0.7878905852173688,1.0314143221835792,0.0,0.0,0.0,fall_forward
20008,10,-0.43654266891586024,0.23340082849584812,-0.26427065657188054,-0.09791367090810346,0.04858393223707218,0.025883183026187473,0.5936639226193728,-0.6455790853865793,0.3524307063987851,0.0,0.0,0.0,fall_forward
20008,11,-0.2515347119267254,-0.06534891969793798,-0.20839031175066838,-0.07655047559026165,0.16536507093219047,-0.07534949790387925,-2.791858040640013,-1.3534859454358097,-1.0372596845340059,0.0,0.0,0.0,fall_forward
20008,12,0.05074420698400018,0.09148656899401653,-0.23919277097312527,0.09300382527851088,-0.03153750697027255,-0.09139619160179548,-0.8186369493481971,-1.823361158049233,-0.9891311744058525,0.0,0.0,0.0,fall_forward
20008,13,-0.10284398298416164,0.10945421113635674,-0.19981488955254437,0.0988740957952721,0.0018418325165228885,-0.07122712090268196,-0.5679225053253879,-0.397805891578041,-0.7033357615066386,0.0,0.0,0.0,fall_forward
20008,14,-0.25331061757107765,-0.18317613802613994,-0.034249894794743545,0.12386242003265918,0.23356018299267667,-0.026779273265059717,-0.4780169413222542,-0.6060777968346299,-1.2054083672160492,0.0,0.0,0.0,fall_forward
20008,15,-0.2779947008497482,-0.0783125537643629,0.07310965432643193,-0.05531355238510385,0.05492185240188943,0.17170354139303384,1.2842707628182117,-0.6073478718034483,0.7934832497220838,0.0,0.0,0.0,fall_forward
20008,16,-0.26372107882846263,-0.1667888914029493,-0.15867811284365752,-0.015493193768938212,0.059198684972604554,0.20407049391053816,0.3005411300301422,1.1133103568305251,0.9709972571373476,0.0,0.0,0.0,fall_forward
20008,17,-0.05922245134003737,-0.025825047494018878,-0.21100443172869765,0.05529533641077455,0.03338317672239188,-0.12272471321244977,-0.06769472700137849,-2.3710738870423853,0.5510355272600252,0.0,0.0,0.0,fall_forward
20008,18,-0.09842458248438433,0.06646124054333126,-0.1390441735856866,-0.11885981714817132,-0.024576275841114617,0.12974106394653542,1.0681996025701888,-0.44490333177315544,-1.6545033845397856,0.0,0.0,0.0,fall_forward
20008,19,0.20474302409928807,-0.2210212669622666,-0.05017057069738809,-0.0017416105419375556,0.15207251058999824,0.18955365289590848,-1.722819196251737,2.0916877353051775,-1.2389163082523573,0.0,0.0,0.0,fall_forward
20008,20,0.05610161078324983,-0.005913289897258804,0.08843621884007347,-0.1916449359227784,0.04838052324158136,-0.060450455268582746,-0.43562026923344344,-0.4601861548163787,1.294636854922698,0.0,0.0,0.0,fall_forward
20008,21,-0.04136840217005237,-0.18115893915907913,-0.1657507897298637,0.09676279166894278,-0.14698736919473257,-0.01236958995629104,-0.513770207200442,0.5365626338132906,-0.28864852029041516,0.0,0.0,0.0,fall_forward
20008,22,0.18754040826550827,0.4024916352043904,0.0013015106851161917,-0.0811570472094414,-0.036258137939639515,0.036927096329826846,0.2642064027409046,0.18674222843791896,-0.6509275226772342,0.0,0.0,0.0,fall_forward
20008,23,0.3850500164948189,-0.04998811265147402,-0.13167529386229396,0.045394345979403,-0.03706859209143464,-0.1169263114931938,0.3436926782165219,0.24200957171120965,-0.8169616614818686,1.0,1.0,1.0,fall_forward
20008,24,0.4309063806955065,-0.12367621796594033,-0.17346812580213694,-0.04038871792752103,-0.13744497877325226,0.07868710527829685,0.18957094973384261,0.5088050399114484,-0.9238996110673727,1.0,1.0,1.0,fall_forward
20008,25,5.396674397459935,5.284161939972923,8.455251791286413,2.5956288372967795,2.526082496443492,2.115808899855904,0.06991320733312281,2.2752177179455186,-0.42540828907473893,1.0,1.0,1.0,fall_forward
20008,26,4.65659804252593,3.76881114141438,5.883787117337388,2.6342194752614057,1.9364434222412519,3.2276635444453317,-0.02693790569999265,1.4766611335205455,-0.7252421455174126,1.0,1.0,1.0,fall_forward
20008,27,6.061621489968448,6.879400866014595,5.198468842687173,2.526461645774711,2.7891350389721916,1.8191120330272768,0.0160798694739036,0.9650821370727215,-0.48705581371270235,1.0,1.0,1.0,fall_forward
20008,28,0.16167100099225293,0.03513418348854628,-0.06493736348402324,0.12031034273613755,0.09377340371522057,0.06837936175615605,-0.8088898575122001,0.2838069929662602,1.0101115390369806,1.0,0.0,1.0,fall_forward
20008,29,0.043182836522385026,0.1856809478738705,0.07634970601013769,0.24096132308622176,-0.02297304333782735,0.14733811984056505,-0.7053567966740522,-0.207509273328136,0.5177783510650874,1.0,0.0,1.0,fall_forward
20008,30,0.07406759037186425,0.41903905350439286,0.21833244584281555,-0.11978251593339855,0.009321066642045121,0.16783239830187907,-0.7572828612564663,-0.97365110433922,0.2994800349964905,1.0,0.0,1.0,fall_forward
20008,31,0.2320856844340014,-0.0007752319605217953,0.08268743982976764,-0.010266900595136758,-0.06676731181206137,0.012393283365765298,-2.838384275362898,1.5207813540933237,-0.5095534319022806,1.0,0.0,1.0,fall_forward
20008,32,0.2065134227484847,0.20985493579046705,0.21247382869831682,0.0027961785906963493,-0.03679869095343519,0.11124823676531859,-0.1978695188502888,1.6181156409539619,-0.053963062575742404,1.0,0.0,1.0,fall_forward
20008,33,0.022509086205849783,0.3612528932970554,-0.16249992772232152,0.13344787925300833,-0.11335080172454134,-0.007117685543221706,0.1629440588385696,0.1899238959410826,-1.123988493137674,1.0,0.0,1.0,fall_forward
20008,34,-0.011785052516108938,-0.3082278311744498,0.1577332744329678,-0.08846391348745941,0.06306148866272301,0.05617709474148658,-2.409933908329898,-1.9410192215768824,0.6660901422670725,1.0,0.0,1.0,fall_forward
20008,35,0.08833689714279422,-0.22965008834825362,0.098483519099263,0.11146892292024524,0.05227388191130498,-0.0004492178036663748,-0.17988011022064157,-1.4836533582320568,0.31765921703353595,1.0,0.0,1.0,fall_forward
20008,36,0.23810486961142155,0.10297295938495525,0.00025689810701534643,-0.01703176479124578,-0.04123129389957149,-0.07422366878376853,0.5187532108598597,-0.46178882940428845,0.6426853847178446,1.0,0.0,1.0,fall_forward
20008,37,-0.06901654255546381,0.2548507191300385,0.1189625395767747,0.13740004813075474,-0.08297207905246531,0.1690835172412601,0.7394983212151319,-0.9707872881064017,0.32800724364331935,1.0,0.0,1.0,fall_forward
20008,38,0.27551887844832207,0.03340122253352419,0.11174102821795007,0.1206109831035515,-0.13438326025665825,-0.13504457665652222,1.3018981581576154,-0.8684065629610246,0.8062590601750588,1.0,0.0,1.0,fall_forward
20008,39,-0.19741988078587466,0.24938134326857514,-0.2067596393617703,0.21363964094626128,0.06056343591589182,0.06175870247358754,0.35966823753260263,-2.0903206023888297,1.2789099682792848,1.0,0.0,1.0,fall_forward
20008,40,-0.05305798264939979,0.07591274213667479,0.04346373541033292,0.10290282315605424,-0.005909561352292822,-0.1772068453127251,-0.4810901522550033,-0.03597989918174404,-0.1202616177187169,1.0,0.0,1.0,fall_forward
20008,41,0.06027451824224861,-0.31434112403221937,0.18090985055516268,0.19170611364348286,-0.11909936173194344,-0.039304827069494626,1.8657715777334303,-0.16386456399541116,0.5167826427930027,1.0,0.0,1.0,fall_forward
20008,42,-0.2520379044869788,0.15990965226826487,0.05198711296806345,-0.12534913898308697,0.06016391051442901,0.09663938862926155,-0.7784899675963205,0.424872436232408,-0.7952995804072732,1.0,0.0,1.0,fall_forward
20008,43,-0.2505579997326397,-0.16053352688666353,-0.2373988297502863,0.04658962343657529,0.1397711290916276,-0.02235977109765917,-0.20630000009257465,0.7187933956744973,-0.5224141016067037,1.0,0.0,1.0,fall_forward
20008,44,0.5009012014168479,0.24097724215387276,0.10755113204938141,0.003841850068711093,0.012126057771532566,-0.15795021691103717,-0.7460193779401741,-0.3692511492430691,-1.5213818811504394,1.0,0.0,1.0,fall_forward
20008,45,0.12130565095636606,0.03805515670060328,-0.16114049676037642,0.0219811381393619,0.11723669698971168,-0.1032479208405068,0.4385220501502176,-0.7732646847468989,-0.16041579656691754,1.0,0.0,1.0,fall_forward
20008,46,-0.2272566627705053,-0.23515877416146352,-0.2642684044511691,-0.12864092422890383,0.04325322728006499,0.11227597808182,-0.31162322050176605,-0.11907438782552057,0.2756355108810089,1.0,0.0,1.0,fall_forward
20008,47,-0.030292023978859745,0.08455727208527494,-0.05096344899669811,-0.020427963583595124,-0.03158250194481957,0.1494238312395287,0.7881975425202447,-0.8423617785929245,-0.4655003390929455,1.0,0.0,1.0,fall_forward
20008,48,-0.1815093204360596,-0.43040649289718796,-0.008993197025495572,0.012816731548384468,-0.15278386656197662,-0.1829647677181984,0.7718466777944715,0.6484535882434709,0.9236588884804796,1.0,0.0,1.0,fall_forward
20008,49,0.12828114853245237,0.0033229925045403716,-0.3530401214867911,0.18132675752377542,0.028577618110099418,0.024151513149950357,-0.986324437879363,-1.1993273476114665,0.12322258673649128,1.0,0.0,1.0,fall_forward
20009,0,-0.17930487574091805,0.006359207714976459,0.3857902987232106,0.12187174600500472,-0.10780509656332511,0.09929211106813254,44.97283047570155,-0.044575188266403144,0.6002416341146687,0.0,1.0,0.0,stand
20009,1,-0.06889655268686272,0.07409454960649073,0.044626321991433834,0.07169573201390031,0.06924364378916048,0.07364100650982985,44.096059404272395,0.6459332213291396,-1.2202289338359815,0.0,1.0,0.0,stand
20009,2,0.0597587899570543,-0.2188223971478935,0.07579718509941291,0.1330402505323429,0.04563330306616083,-0.08911410995398489,43.13954833118359,0.5496694884044387,-1.1853517361147514,0.0,0.0,1.0,stand
20009,3,-0.257753306089416,-0.149445541835092,-0.32916108792591725,0.07040228899355343,-0.00434780273778268,0.19923926367680667,42.243390911731304,-1.512767922678298,1.2332584446625534,0.0,1.0,0.0,stand
20009,4,-0.013710731371483882,-0.23661938012663447,0.05832554069624146,-0.11998590129775913,0.15103031157380462,0.10643319167653337,41.343764920040336,-1.2763319851688535,1.2992548186499877,0.0,1.0,0.0,stand
20009,5,0.3125899855204394,-0.1606764723192672,0.030961898019798012,0.016114433074247748,-0.11914622570313135,0.01570243425631335,40.41920781391835,0.21043089736374793,-1.37645076856406,0.0,1.0,0.0,stand
20009,6,-0.03177274123110715,0.24536649697063045,0.04006138112627128,0.022629197367046924,-0.0794431918750769,0.052300719177773694,39.46709269899974,-0.1909795588445254,0.5170945906001321,0.0,0.0,1.0,stand
20009,7,-0.10475435284637727,-0.09755491959270783,0.02600672261078314,-0.2076149281531616,0.022930731144502257,0.12171300553651983,38.58294773465906,1.3561082687919614,1.378102890384437,0.0,0.0,0.0,stand
20009,8,-0.12492899847200414,-0.1723585535387471,0.16951662860564817,-0.18880165311801556,-0.0907586489018293,0.1312943155094936,37.67709566118218,0.9285579952149442,0.7076462798883232,0.0,1.0,0.0,stand
20009,9,-0.07433460312613345,-0.42521428450183757,0.017836255902195685,0.09440767398796378,-0.16019435073172603,0.023273473252122527,36.69316113585767,-0.1373005181478106,0.2567388639994853,0.0,0.0,0.0,stand
20009,10,0.09722011432282868,-0.19966284207830107,0.1773933559969122,0.059550985864486435,-0.08643355793375149,-0.10106695358367038,35.7977347848137,0.7726974761418413,-0.8168192393930103,0.0,1.0,1.0,stand
20009,11,0.2821346189907148,0.23848571281994693,-0.05061480688435808,0.16168070326564543,0.030909719382371456,-0.022580853995928338,34.852533381692716,1.8492778761381923,-0.027353026637206995,0.0,1.0,0.0,stand
20009,12,-0.05656300525406524,0.2638106066237578,-0.14005252557515968,0.031185211126103368,-0.06730512711704574,0.04824070665663229,33.97850347406502,-1.0581581907060917,0.006710671628295946,1.0,1.0,0.0,stand
20009,13,-0.18965538101988372,-0.02859871793088959,-0.1874369907808274,0.04108956043436593,0.20139186771364354,0.07744777393904634,33.07371566198956,-0.06436280165447303,-0.5943261338290827,0.0,1.0,1.0,stand
20009,14,0.005085421103411945,0.1876160847922149,0.41548193782971754,-0.057451488850448734,-0.07428463126610596,-0.0319961601105459,32.110003407936986,0.719119716797418,-0.19914181874357564,0.0,0.0,0.0,stand
20009,15,0.16085355304438295,-0.4085990914861769,-0.092871121304647,-0.089250888988905,0.061199785590447336,0.06392419402481908,31.222564022708703,1.396921061979625,0.9467683462349319,0.0,0.0,0.0,stand
20009,16,0.1748430092897944,0.20113319900263069,0.04194732675161455,-0.01674523616982904,0.14653359905027172,-0.12832065884577987,30.27824510069154,0.2864981312816998,-0.03419683007461739,0.0,0.0,0.0,stand
20009,17,0.037948455570167273,-0.1318242125228119,0.16033336830048717,0.057711415271358986,0.17353798789831434,0.08005223766405146,29.38144381283826,-0.8925502403379048,-0.5359150396659231,0.0,1.0,1.0,stand
20009,18,0.10161547575354932,0.07918165086756382,-0.0988949111638887,0.04015354835794725,-0.0985365277747036,0.043350331779854846,28.450066488423094,-0.34412676823558447,0.5185455936221514,0.0,0.0,0.0,stand
20009,19,0.4599408059862639,0.03200890721133692,-0.019180671954290338,-0.08949223000598128,-0.042553648583649115,-0.15164891434596653,27.541293298332157,-2.439124166675822,0.8715799134828986,0.0,1.0,1.0,stand
20009,20,0.4327427713149963,0.05798328909301204,-0.022695770361590387,-0.04183385846677484,0.09350758485398145,-0.028061147986008818,26.649359273964457,0.446586648353533,-1.4356113064176976,0.0,1.0,0.0,stand
20009,21,-0.04597623556153828,-0.1328134218847443,0.11931829360641003,0.031141187153459978,0.16597671567789746,0.05240251102546072,25.73215481212972,1.0247859689199323,-0.8463703129430203,0.0,1.0,0.0,stand
20009,22,-0.450765891746134,0.14718376410893796,0.2706514570208761,-0.003297804232040423,0.07772109073781532,-0.04376766688467816,24.789323139368058,-0.023053777152949862,0.5645625007293628,0.0,1.0,0.0,stand
20009,23,-0.09613402608095428,0.07670816368080335,0.005397483543597787,-0.03369673800641387,-0.03890699079514817,-0.2000637625267593,23.860401523420073,-1.370369591664039,0.5548752467204054,0.0,0.0,0.0,stand
20009,24,0.04060666351362043,0.011896701836715812,0.40483994188850925,-0.11477275311204117,-0.1403566779279931,-0.016322921443732916,22.93665680986743,1.4398131171714448,-0.5691037345522879,0.0,1.0,0.0,stand
20009,25,0.06268344881539488,0.0312962711935692,-0.3354371051296281,-0.058364047476072156,-0.08183738451886674,0.15088678356766136,22.044098632775295,-1.8443369386885333,0.9056526625484839,0.0,0.0,0.0,stand
20009,26,-0.23208279054391456,0.026193860211638408,0.030910215793153215,-0.025691796021770547,0.14949128771262524,-0.09647563196605907,21.133197456903577,-0.6136243175594981,0.054494988166297796,0.0,1.0,0.0,stand
20009,27,-0.21523528426904798,0.1884207388098594,-0.0784242185813469,0.018025529077251707,0.13518734043431274,-0.08060284626457365,20.22171261377019,-0.17613783415143158,0.7851728648685015,0.0,0.0,0.0,stand
20009,28,-0.2777770901198692,-0.25178576370791367,0.22072406931701904,0.013115552074908126,-0.07728597183221975,0.04392055784441723,19.284578538601977,-1.1563240668559056,-0.8877253624852297,1.0,1.0,1.0,stand
20009,29,0.047899979369540616,-0.10174644538401705,-0.06481828336169694,0.09451928062653521,-0.08803227088505082,0.04295090146794732,18.39446819287113,0.29557263169771,0.43865826735879443,0.0,1.0,0.0,stand
20009,30,-0.11661314536063708,-0.08277417928941253,-0.08084254448963078,0.0504046106282833,0.17394449567507747,-0.01932422605863657,17.455054528958467,-0.6969452121801654,1.361654229299109,0.0,1.0,1.0,stand
20009,31,-0.16414238601530148,0.11161618908523768,0.10847202037476403,-0.08278573179730893,0.03665465218010122,0.01703854841874697,16.50546818135752,0.19155435119996983,1.8573685213558033,0.0,0.0,1.0,stand
20009,32,-0.13463552452838898,0.09991764060779947,-0.19491723261118193,-0.31250088745610666,-0.09009204729730431,-0.13057572889019084,15.636296069101268,0.8134154781276268,-1.5188029651082637,0.0,1.0,0.0,stand
20009,33,0.01492645003181386,-0.21054082212104058,0.12077896788724403,-0.06727941013703526,-0.0662555404782662,-0.15672273843632314,14.714457054370103,-0.853059243090458,-1.6787807209148906,0.0,1.0,0.0,stand
20009,34,0.024139918432199262,-0.22828247639847782,0.26251701499168606,-0.047587840575420995,-0.05177848335802292,0.17919035078926487,13.768147273036847,-1.3373813763754203,-2.154145519269983,0.0,1.0,1.0,stand
20009,35,-0.00834878568899229,0.26747468111445816,0.18224454188100248,-0.04470724990646094,0.024014600964211232,0.07433278816764953,12.84050936709067,0.9435562485237954,0.6106306624891432,0.0,0.0,0.0,stand
20009,36,-0.029195056406280815,0.12539194168817985,0.11332165738832747,0.06780276448733266,0.11515804836381359,-0.1528523538864565,11.951472716061717,0.5374372861833299,-0.12565446467939578,0.0,0.0,0.0,stand
20009,37,-0.4678871748658402,-0.1681712110333795,-0.0969234374460563,0.022694002754110806,0.0336573214130045,0.09766294750313044,11.034558316426562,-1.071011732019734,-1.2681373038839814,0.0,0.0,0.0,stand
20009,38,0.11294799210067576,0.025719769488029478,-0.2493563528407015,-0.1502860775250047,0.1697826680328957,-0.08264675775264643,10.105812830892136,-0.8353071125273513,0.29533880129390744,0.0,1.0,0.0,stand
20009,39,-0.007567482462716083,-0.06754104253293894,0.2382214903781955,-0.007845094475401432,-0.07736929300153242,-0.0546184798596013,9.193708129672517,-0.7889843532660241,2.113384518069841,1.0,0.0,0.0,stand
20009,40,0.35015248577421254,0.1572144398266015,0.05539425983662008,0.02579275909345554,0.12391503912663171,0.0855528536133172,8.319711885408179,-2.284556046139942,-1.4236156540981695,0.0,1.0,0.0,stand
20009,41,-0.17063389179499167,-0.0059023001246983585,-0.5591915098991462,0.08790539729969357,-0.02974184831611902,0.0026796837258166242,7.341845908787705,-1.548626710640899,-1.5630749657208345,0.0,1.0,1.0,stand
20009,42,0.04752152505515045,-0.2723651156896812,0.15426165616767767,0.03881651875219719,-0.1740923247717031,-0.05306519654891134,6.454603845827188,1.348097994055074,-0.6313249584186773,0.0,0.0,0.0,stand
20009,43,-0.20368864457708954,-0.08772700678200922,0.014445326505259355,-0.2849870562627475,0.05322563125158671,-0.11913994781815221,5.500485955544627,0.33177125506616806,1.4976434823591906,0.0,0.0,0.0,stand
20009,44,0.219588781799604,0.2518454233989966,0.11486144211862845,-0.08513894106136477,0.12029977997415414,-0.01942456321718055,4.586267555392807,-1.50451274773346,0.8418370134920005,0.0,1.0,0.0,stand
20009,45,0.37323262507453714,-0.10870922943700372,0.07900160303385756,-0.004592971478938278,-0.18084891544827472,0.146819454630175,3.7088308475482212,0.10298999630623266,0.007825962203638265,0.0,0.0,0.0,stand
20009,46,-0.03915160731657624,-0.10889196727936841,0.2647023181025067,-0.07334718545622336,-0.11042648625118553,0.011125131998109543,2.769930584438923,-1.6529524557604984,0.6406201589910904,0.0,0.0,1.0,stand
20009,47,-0.03331960341585028,-0.007886664425915561,-0.11527686218309616,0.1393586794011881,0.004699338443170865,-0.11842694686420696,1.8345749754815186,-0.7423398314226934,-1.6640507484284082,0.0,0.0,1.0,stand
20009,48,0.05725916141246296,-0.16423194690113654,0.09235200816930922,-0.15969618400720811,-0.08045197509830679,0.04110017546886573,0.9186326054026417,-1.0451166427982426,2.5608786788686624,0.0,1.0,1.0,stand
20009,49,0.3600132960199479,-0.26547471760994745,-0.03402887814253712,-0.11388039655411301,0.06207580445449943,0.07336063100230274,0.029707406623866405,-0.5169646268542243,-0.9725531623218917,0.0,1.0,0.0,stand
20010,0,0.24936324585510078,-0.17088558940816004,-0.013709885859445617,0.056797113550732,-0.1699052826872173,-0.09331421940115757,-0.26277325125914186,-1.124284406314671,-0.7815322210082469,0.0,0.0,0.0,fall_side_left
20010,1,0.020762856486227124,-0.1896181253533941,-0.05182038689492867,-0.07796681713542988,0.09280163978010283,-0.042220183628004004,-0.027763163300523287,-1.205239340886144,-1.72632808958035,0.0,0.0,0.0,fall_side_left
20010,2,-0.217394970257155,0.37076841925808546,-0.03684545116143259,-0.08069781430462629,-0.07771152057332983,0.10685330849034708,-0.9001463612564057,-1.484602454362626,0.29825192491344765,0.0,0.0,0.0,fall_side_left
20010,3,0.27608060109346566,-0.10752687185054141,0.2326171056526771,-0.043818714959106546,0.16267350610251582,0.019844436689688636,0.8628698630710834,0.5821874232965956,-0.5607912960731496,0.0,0.0,0.0,fall_side_left
20010,4,0.005239780883508066,0.38049194171735856,-0.04801153947554026,0.12189716811620835,-0.07741123995708189,0.0022989565093428366,-0.9661077588285044,-1.185592056308209,1.1761640510915825,0.0,0.0,0.0,fall_side_left
20010,5,-0.16843955344626044,-0.23822496564077278,-0.15405885481781872,-0.04714840332461558,0.030619484695376793,0.08103438002699333,0.9695109019756889,-0.2566635554772394,0.013074926945388754,0.0,0.0,0.0,fall_side_left
20010,6,-0.20948786552099147,0.022963070812590424,-0.2396572275150353,-0.05982590177992808,-0.11582331763088871,0.06515979446906564,1.683593548258309,0.19603407297011646,0.7636072972811869,0.0,0.0,0.0,fall_side_left
20010,7,0.03601732941014109,-0.3757083396977081,-0.14429122927157956,-0.16037655034449258,0.008694416542371776,-0.18391083963053462,-0.48723706389189436,-0.1511562547597637,0.14928982754286826,0.0,0.0,0.0,fall_side_left
20010,8,0.2683338638516446,0.1784042890849822,0.3894200026926728,0.10681625773589994,-0.10502952757548203,-0.20155526267307347,0.921641467750139,0.4188005972600174,-0.4073744894454345,0.0,0.0,0.0,fall_side_left
20010,9,0.09620622105132802,-0.31297751421724573,0.0076912654971280775,0.0155893288668447,0.15395475746950188,-0.007278973724606866,-1.7522665771668255,-0.7365611939547824,-0.5759440831112345,0.0,0.0,0.0,fall_side_left
20010,10,-0.21209871543374306,-0.1984769272129705,-0.14448094683080764,0.009698528269827016,0.039433106612364405,-0.02864414831913392,0.3658891769630639,-1.443879461592172,1.4242067789285617,0.0,0.0,0.0,fall_side_left
20010,11,0.016810961204409634,-0.14206821016958152,-0.039567264027972796,0.03551250689275623,0.2950296155166706,0.07894822666926404,-0.20205274910945797,0.31224203862910416,-0.5972303996620002,0.0,0.0,0.0,fall_side_left
20010,12,0.030868546250283343,0.20353421023632728,0.1804467333958582,-0.002575881287225225,-0.13202422736954064,-0.10263600128415472,0.17557375976609416,-1.6258310232930648,-0.038125112438260986,0.0,0.0,0.0,fall_side_left
20010,13,0.15944609916818916,0.088564961293163,-0.11917440871420859,-0.10800922366987115,0.011682891335335295,0.20525426161312166,-0.6804431056035922,-0.9372230736692848,0.03478357954229436,0.0,0.0,0.0,fall_side_left
20010,14,-0.13884145169225337,0.24047200646653513,0.19017341049900996,0.11102098338124014,0.15957580046956907,-0.04547828241358703,-0.8613420497094663,1.1779341486209443,-1.3660503942349091,0.0,0.0,0.0,fall_side_left
20010,15,0.016418590843646202,0.013519783580377028,0.39096444245873585,-0.1444604078751323,-0.019402737443888617,-0.05199225217162206,0.49058216484394146,-0.6918844722158408,-1.315924559649384,0.0,0.0,0.0,fall_side_left
20010,16,-0.12453194320424173,-0.24016081332182287,-0.19317209242094302,-0.013433526575784095,0.07551428158343873,0.2475582999986392,0.2584014718381209,-0.8914935996277804,-1.1687546816603398,0.0,0.0,0.0,fall_side_left
20010,17,-0.07436229611670402,0.10918641554238011,-0.1944166375423077,0.05299271808542019,0.09851093492469647,-0.32630626300583104,-1.7762101976785203,0.07378379909941685,-0.5189234939419802,0.0,0.0,0.0,fall_side_left
20010,18,0.14532138661216132,-0.10367533304977689,-0.08648400467224177,0.10021895745872926,0.15415012482830615,0.02744247440837463,-0.13750136485700418,0.04763210439527272,-1.9360225650247216,0.0,0.0,0.0,fall_side_left
20010,19,-0.2528123362866076,0.07119963465771466,-0.07228670067558052,0.019895096159991264,0.1676649842937591,0.020462752774283725,-1.7633061547897422,-1.3435845667470103,1.3746607016375907,0.0,0.0,0.0,fall_side_left
20010,20,-0.008840721976954478,0.08774426737207532,0.11790242885702781,0.0278181027755159,0.18438750243851376,0.04031489335399473,-0.5869259666776901,1.0722084221736985,-1.9385943309577773,0.0,0.0,0.0,fall_side_left
20010,21,-0.008386523903817646,0.0433474448112407,-0.12167284956611302,0.07814895075823375,0.0655606842491819,0.1799368829906714,-1.4123280237035332,-1.9941391275397375,0.042069928221653646,0.0,0.0,0.0,fall_side_left
20010,22,0.2758897914021041,-0.040220668640007576,-0.05483146634714124,0.09150131322764513,-0.03787615215450698,0.09660396958698772,-0.539861842278974,-2.9665117674702106,-0.07647876427491766,0.0,0.0,0.0,fall_side_left
20010,23,-0.4169544508615986,-0.2451848399464334,0.2888615684357252,0.10096390528823729,-0.10575967566447111,-0.2045804580454502,0.7205037243445902,0.4732397948467447,-1.4037579240899092,0.0,0.0,0.0,fall_side_left
20010,24,0.045415383200579876,-0.07501152315742392,0.05582573439731713,-0.09077597101734469,0.08525309790820777,-0.06823905245466241,-2.8254158118051538,-1.44857482166763,-0.7225311488267946,0.0,0.0,0.0,fall_side_left
20010,25,0.2730965929684363,-0.2034301675989222,-0.057665265827626926,-0.11453436012981615,0.09567748610367845,-0.11440629996521572,-0.494399257823863,1.3582202819185698,-0.7314325897832574,0.0,0.0,0.0,fall_side_left
20010,26,-0.10818082066500029,0.027333922254780825,0.16130743548832763,0.23998623503253994,-0.06510389730239802,-0.1740844092958441,1.270044858269182,1.6109000270640927,-0.4822191737358008,0.0,0.0,0.0,fall_side_left
20010,27,0.38649438148507237,-0.06877088432881454,-0.17968224908646302,-0.1382046659456893,-0.07725277813517387,-0.11843101217174326,-1.9000670126848698,1.4775213744949791,-0.6647692398423042,0.0,0.0,0.0,fall_side_left
20010,28,-0.08557947288291307,-0.30639629801328006,0.20363265365595745,0.17577535368314778,0.01831436460638341,-0.06208639505770379,0.42918623903869957,-1.7607113626847999,-2.145632763707163,0.0,0.0,0.0,fall_side_left
20010,29,-0.0880360986056203,-0.4735527902299274,0.31968139128487294,-0.22285717785584103,-0.10261901535358091,-0.048800366999119056,1.758394401889196,1.064449876981168,-1.0004105801307368,0.0,0.0,0.0,fall_side_left
20010,30,-0.11929927278835714,-0.04345323276433185,0.16091980904478745,0.09151924741962218,-0.0670201617513571,-0.09631749393046095,-1.0576621872213576,0.34789717854832947,1.417571407413631,0.0,0.0,0.0,fall_side_left
20010,31,-0.061041839398155114,0.23540232559769636,-0.06726801888647947,-0.1403055436337941,-0.04177494487376242,0.020010436580406035,-0.19140273166221566,0.21813553896402185,-0.09886940609382387,0.0,0.0,0.0,fall_side_left
20010,32,0.020934692201173367,0.13139236166266038,0.000994410785960631,0.1406988803370191,-0.03625262185433095,-0.19065262046140732,0.8571175485560156,-0.19150870076619647,-0.8243809345352245,0.0,0.0,0.0,fall_side_left
20010,33,-0.3459436888164036,-0.05041133263126944,-0.039895180650642605,0.0167127283207169,-0.08078482412480835,-0.13801065429802784,2.1858010501159764,0.7872883822153718,0.8826856028862272,0.0,0.0,0.0,fall_side_left
20010,34,0.06981839475789091,-0.17624861716273266,0.09272886967325326,-0.013355213741919378,-0.0005594444516637473,0.13998809453779298,-0.8531801798732118,0.10068543165313289,-0.8441654942844261,0.0,0.0,0.0,fall_side_left
20010,35,0.16475002576997688,0.10234340789785455,-0.04920702489322131,0.11833393997878676,0.012055953770485635,-0.12466017821090802,0.24451998852935514,0.6519426757132547,0.11558392380274363,0.0,0.0,0.0,fall_side_left
20010,36,0.12724800350815907,0.28614995299068935,0.27616203519902377,-0.18555268038271583,-0.13279812046464973,0.13992636656167431,0.851807364118229,1.6026598735876272,1.9111988077849644,0.0,0.0,0.0,fall_side_left
20010,37,-0.29574598383883766,0.13291583582208039,0.24213570332553047,0.07109151550109374,-0.3319164266195685,-0.0653058232522242,-0.22179001292560152,-1.4213613086790788,1.225078920132182,0.0,0.0,0.0,fall_side_left
20010,38,0.008764268481767201,0.04763103164325306,0.10757467456954625,-0.23762841897727852,-0.05856656290786248,-0.14586041570622088,-0.11273844616842177,0.16738609827579926,-0.7246792077978129,0.0,0.0,0.0,fall_side_left
20010,39,-0.3075651230149084,-0.18406270734842606,-0.15325294341930673,-0.09715899803324542,0.0015375231826767546,-0.08793935346545022,-0.7153943313529649,0.528497617434905,-0.1280206898962692,0.0,0.0,0.0,fall_side_left
20010,40,-0.23996805703415447,0.05697292864490016,-0.310313066060564,0.09142995504481768,-0.07814174970789454,0.04206318175449075,-0.17454713109623488,-0.6502326231333643,-1.4021449659632614,0.0,0.0,0.0,fall_side_left
20010,41,-0.004442731807608465,-0.2662416219705591,0.43928120022546435,0.015256769317342503,0.05935947173587118,-0.11151501034365012,1.6074724397223077,-0.7797017362542376,0.921378107697755,0.0,0.0,0.0,fall_side_left
20010,42,0.06415003244540972,0.10033972170116556,-0.648648870164503,-0.10413934848198309,0.0824727158236202,-0.07009861714946995,-1.0141477318250232,-0.6669046944671806,-0.6812640321740914,0.0,0.0,0.0,fall_side_left
20010,43,-0.08380738318694528,-0.05918195940473673,0.02859218747569201,0.043771164987744214,0.15468385625494951,0.04199756834827871,0.33691949134106947,0.9801736154332148,0.6241503511981068,0.0,0.0,0.0,fall_side_left
20010,44,-0.09221497159716358,-0.335634139780568,-0.0835812469954275,-0.1393429077866526,0.016006481793382776,0.10043270150731551,-0.37043199317291237,1.958987330454046,0.714737364441495,0.0,0.0,0.0,fall_side_left
20010,45,6.857496719839218,6.724907264040248,4.089858552092331,1.8435264042188448,2.3063598121039415,1.813568098708302,1.0190376351707988,-0.4288078048547715,0.15708700786067106,1.0,1.0,1.0,fall_side_left
20010,46,5.423894914391891,5.587216057371816,4.091036560475265,3.123908790360896,1.488840716871119,1.3390822577775692,1.386585607390045,0.5945044395074962,-0.8138890447376275,1.0,1.0,1.0,fall_side_left
20010,47,6.035645601928485,6.6445482459277745,6.577518571514852,1.5664905707285521,2.316466730145108,2.2163656107661835,-0.4836239714957648,0.07148870641749565,-0.8146856123351635,1.0,1.0,1.0,fall_side_left
20010,48,-0.011374096568313998,-0.1021893349490862,0.2633437067913797,0.11428387957982633,0.2380866255888584,0.03635209672556225,-1.051125134852508,0.3109172744940824,-1.5069235498942102,1.0,1.0,1.0,fall_side_left
20010,49,0.27349413809803486,-0.02658080247702834,-0.17868627462151906,0.09604327798032158,-0.006001772343896178,-0.1827238405874186,-1.0116135067966272,-1.662629357689132,0.8783554813980782,1.0,1.0,1.0,fall_side_left
20011,0,0.37248665286165833,0.18266092240732473,0.2918132655191612,0.05478783529487742,-0.05036649197096464,0.15849640446671062,44.98135323555184,1.5606197228258039,-0.302129095041756,0.0,1.0,0.0,stand
20011,1,0.17586853391321225,0.1463923759355038,-0.24310789249202908,0.06172382802648219,-0.09337652145663994,-0.02774876516392114,44.08736498469626,-0.3996818334941365,1.3727362212294378,0.0,1.0,0.0,stand
20011,2,0.2582276943104993,0.2115499863999843,0.06808679872244497,0.11327704241433229,0.09763419922380719,0.16436101348405716,43.17365422789647,-2.0474284821492046,-0.8676868002920993,0.0,1.0,0.0,stand
20011,3,-0.08519922795758866,-0.021320674538690933,-0.027097722725861556,0.056001767482658185,-0.05350690135072858,0.030493357843076788,42.26325751237588,0.39517193408907425,0.12107362403847222,0.0,1.0,1.0,stand
20011,4,-0.012035378112252457,0.27451493126390625,-0.04747253406763044,-0.02549903056065969,0.006398686831093289,-0.11814136244393234,41.329772237268045,-0.9006290291248122,0.4353880848945728,0.0,1.0,0.0,stand
20011,5,0.0875541831093774,-0.10814835617214356,0.27208553074550357,-0.09917026409570924,0.0027717562184105884,0.021776014099152193,40.42506593525167,-1.2395554494528174,-0.8314885807166034,0.0,0.0,0.0,stand
20011,6,-0.08922310365834071,0.0780497606199029,0.22700917168003532,-0.062158352715500145,0.0026303176992908475,0.07490206037156424,39.5060286968549,0.2507019265798894,-0.3369267455030563,0.0,0.0,1.0,stand
20011,7,0.10640994933230627,-0.041408180018895166,-0.06168075798860326,0.045019659215727856,-0.11541264222229765,0.23353394786135503,38.579094546059366,1.0397406682726897,-0.19395040801634478,0.0,1.0,1.0,stand
20011,8,0.34037402447969034,-0.526713566266429,-0.2585127926838169,-0.005293796154707785,0.02394585289150218,0.0483157724655592,37.650857699691386,-0.8461331896346966,0.5061355006360972,0.0,0.0,0.0,stand
20011,9,-0.278552983031381,-0.2287576161698191,-0.12890122403150645,0.04444346923123239,-0.09755042122175424,0.008635830464224073,36.717261183097015,0.46253517869280675,-0.9019438389779736,0.0,0.0,0.0,stand
20011,10,-0.11375376966432608,-0.2685478114447322,0.33289289982497855,0.15259192898828602,0.22159035061554722,0.009512758772093472,35.81521080438498,0.31294083166591047,-0.4422181802097747,1.0,0.0,0.0,stand
20011,11,0.40914629893464405,-0.20631810949421814,-0.23356326011082712,-0.0354962345968137,0.034966662222858644,0.15941305222910257,34.895652029527994,-1.403650758628363,0.42028230416153617,0.0,1.0,0.0,stand
20011,12,0.48510119608131086,0.14165318670370508,-0.0988643577275888,-0.1927719482614914,0.06488232345207523,0.0011795256054146046,33.98716367697447,0.5699530434213738,1.2232846092773952,0.0,0.0,0.0,stand
20011,13,0.048318694138325353,-0.29299733847852555,0.0055490691626213385,-0.03171252364608336,0.05565650907118527,0.005511514060774973,33.03550527440298,0.009256609310705124,-0.5043694679228982,0.0,1.0,0.0,stand
20011,14,0.12365696072939707,0.07191222391289434,0.17603640541472138,0.05977975382023519,-0.03814072739460016,-0.03346004064529544,32.16138626643802,0.7526846780125745,-0.3013037885809781,0.0,0.0,1.0,stand
