sequence_id,timestep,accel_x,accel_y,accel_z,gyro_x,gyro_y,gyro_z,pitch,roll,yaw,floor_vibration,room_occupancy,pressure_mat,label
10000,0,0.07261237565805453,-0.16344639099993422,0.12070153290591791,-0.06861405113081312,-0.07627675488647125,0.07056261735981809,-0.16858943006443955,1.7756144236650961,-0.8591697847104542,0.0,1.0,0.0,walk
10000,1,0.0891871846447287,-0.023727832285043576,0.011617662214220257,0.14216612342554955,-0.11022182445674177,0.10514126234834982,1.1832650047845088,-0.004202609578947122,-0.5232102622486229,0.0,1.0,1.0,walk
10000,2,0.031132610364730792,0.1947056046931505,0.3983380175959352,0.2021114379213265,0.1459704504985726,-0.10477912959693841,0.870255579109056,1.6519426176519958,1.1468676586262647,0.0,1.0,0.0,walk
10000,3,0.3115144324836076,0.3706848358908751,-0.03714564363770264,0.010433452482657122,0.1781403972026492,0.24042319527054873,-0.006073432239686108,1.129189854727746,1.8338309938907602,0.0,1.0,0.0,walk
10000,4,0.5449992122323715,0.1716091881642525,0.38550845955758944,-0.1279816646190854,-0.1661842637569901,-0.014115027324314472,-0.12185761523270368,-1.2229868968633792,-2.236638312170532,0.0,1.0,0.0,walk
10000,5,0.05829733210448056,0.35529470799081264,0.6362205183051398,0.08275566104294867,0.0011185462543618443,-0.044179907004365956,1.6523341401618103,-0.4106598082552659,-0.46042333225206405,0.0,1.0,1.0,walk
10000,6,0.26460891209084175,0.7460618862331412,-0.03808950385345562,-0.029501419051128262,-0.050305521667149536,-0.06895311899202809,0.5368658814228681,-1.8876568698589224,-0.2401125536848704,0.0,1.0,0.0,walk
10000,7,0.4829550216166816,0.6540883333517107,-0.028784753647419125,-0.1670681825670461,0.06726589984436808,0.16155329281716,-1.8070840724913964,-0.48730905202718894,0.6445817144056155,0.0,0.0,1.0,walk
10000,8,0.6149057679005611,0.75,0.3179387530496216,-0.04531714219654346,0.005776785299176451,0.01697231001123976,0.0348621267473189,1.8813239831454176,1.67479041157423,0.0,1.0,0.0,walk
10000,9,0.3630533665748018,0.35618257812000553,0.6526552059232053,-0.016586910847580887,-0.010706369613681908,-0.0531771645771852,-2.3785026211505103,-0.7805092611098476,-0.9981146910104409,0.0,0.0,0.0,walk
10000,10,0.6751154696568342,0.7341547137589165,0.18409148053381547,-0.08105800290515472,0.05016869346979628,-0.1252132451794911,0.8379657096440131,-1.6916976606914216,-0.07171316286400463,0.0,0.0,1.0,walk
10000,11,0.48478416319626,0.3952814146357358,0.3630336061876935,0.015296048308061961,-0.1613309861157533,-0.0890005757105988,-1.0998825560428804,1.3530891278902508,0.7194945591746256,0.0,1.0,0.0,walk
10000,12,0.48939764391414403,0.06536115071522615,0.17805353028748022,0.062272120793423875,0.12621886231473906,0.04362266635190341,-0.5790579253764823,-1.7766127643188112,2.253418386667135,0.0,0.0,0.0,walk
10000,13,0.16735698489215084,0.19025715193359655,0.17064372560905333,-0.09700690397177092,-0.049181614204027585,-0.02843890906420573,-2.6378977588424863,1.1580771895242594,-0.5971721328694541,0.0,0.0,0.0,walk
10000,14,0.2785894939348755,0.7262859362081885,0.3892281409662568,-0.06578813949219221,-0.021808391773460736,0.055173152557266666,-0.3363230923693129,0.09556368480833202,-0.2657513176456762,0.0,1.0,1.0,walk
10000,15,-0.19289134407567526,0.1971523007043399,0.588299638417312,-0.09320120922650149,-0.04844163796091916,-0.11966136936869917,0.4073511401396413,-0.7869529487307496,-0.6419041033864797,1.0,1.0,0.0,walk
10000,16,0.024798731144114718,0.22866468660147365,-0.054002087226874065,0.133081378207848,-0.12232916320438915,-0.06656562235774438,-1.2793701145541438,1.9849851697095695,1.6929084143787165,0.0,0.0,1.0,walk
10000,17,0.09546092477594106,-0.17105696336265494,0.20428738172047015,0.29029328610865923,0.05804674238676337,-0.12417473790389542,-0.14690727504902587,1.4097378855146538,0.42417767911263105,0.0,0.0,0.0,walk
10000,18,-0.36316653572006724,-0.13560918392598018,0.04252617449134555,0.06794160487394023,-0.013714146160002959,0.13423050610765766,0.7322853941097749,-1.271968701072579,-0.19282502283974734,0.0,1.0,0.0,walk
10000,19,-0.347667943471876,-0.26846701178755916,-0.5535498307421981,-0.04902490521083099,0.15262303627069,-0.15001902373078885,1.5194749990897065,-0.3602379314688849,-0.5898654347625518,0.0,1.0,0.0,walk
10000,20,-0.4863155995447856,-0.13121648934502442,-0.20632754836833375,-0.01810747079780241,-0.1478636397179896,-0.0855226803016875,0.1295707806681651,-0.6415031896849317,0.5643303957257525,0.0,0.0,0.0,walk
10000,21,-0.14651157101516427,-0.2604433015960275,-0.6310088040424479,-0.054711458351698335,-0.045332302327183376,-0.09778129490733364,0.039052234606028566,-0.9795514433823325,0.9116014333043542,0.0,1.0,0.0,walk
10000,22,-0.1933478294797038,-0.6695450864279182,-0.1391883381580331,0.051240728383151295,0.032285365401182035,0.00761763721369069,-0.09820837110926063,-2.074054235593184,-0.26788652513353545,0.0,1.0,0.0,walk
10000,23,-0.75,-0.2418335376569551,-0.3864697192400686,0.09649952833130976,0.06610247269157367,-0.13796696801463149,0.7918422100593351,-0.6162546998555496,0.6963753127165563,0.0,1.0,0.0,walk
10000,24,-0.24457211062277937,-0.6584861304230096,-0.7,0.0028953111699077374,0.1423241543687956,0.03771177435109008,0.8163148660971727,-0.8325874101787146,0.19962244693712936,0.0,1.0,0.0,walk
10000,25,-0.52539173845589,-0.6159702302718032,-0.7,0.168080572784226,0.11636696078996493,-0.11005446030795732,-0.2106684005574785,0.23344184606839347,1.0668433524319934,0.0,0.0,0.0,walk
10000,26,-0.75,-0.34547856805075,-0.337013145488398,0.17987461457461912,0.07435232669730857,0.1296275231465537,-0.39047758962579804,-0.6091855098836043,-0.0595778844689663,0.0,0.0,0.0,walk
10000,27,-0.6420793324245258,-0.2989082923866579,-0.4980718211084083,-0.13302848360790676,0.18113225668207078,0.0857064346475489,-1.1080640608496815,0.4141319411722547,0.33381531131292835,0.0,1.0,0.0,walk
10000,28,-0.20567441716638635,-0.4470782684748043,-0.4285199870052629,0.16820046457516968,-0.117838579481157,-0.00801472959246241,0.646410750422543,0.17745781616259912,0.3177418673441113,0.0,1.0,0.0,walk
10000,29,-0.25652356573571533,-0.566702826486178,-0.11382624980258184,-0.07774632390784998,0.11203391768758707,-0.03349830066722437,1.8070694330418107,0.6804591007741903,-1.0863806542123011,0.0,1.0,0.0,walk
10000,30,-0.1660094917677693,0.027682697041018757,-0.2632158311169491,-0.010388247963397717,0.180384252492566,0.20519103960966664,-0.11698885198701309,-0.5162962208224697,0.3135389198375454,0.0,0.0,0.0,walk
10000,31,-0.11892039077150768,-0.304169014898004,-0.02147318720521244,-0.040262353652675976,0.028655470823065722,-0.031049067315339553,1.0500688755197098,1.405202385628474,0.8892003943360176,0.0,0.0,0.0,walk
10000,32,-0.005687386397110874,0.10280210051387842,-0.17449426760737202,0.07301001857421474,0.0650160779622893,0.17327931127054227,-1.3130607411989517,0.22537790151702777,-0.2200153917240265,0.0,1.0,0.0,walk
10000,33,0.14704417302359618,-0.0916194292460312,0.3147005372269877,0.11641532419780286,0.05818615145127054,-0.07870626879750663,-1.1855865766521703,0.023124707652375558,-0.07907909142947935,0.0,0.0,0.0,walk
10000,34,0.36632309250286066,0.03647551176901264,0.11683829197186005,-0.06254032154836654,-0.0827488921835084,-0.29446867238641317,-0.26696643896196076,1.7240176251641244,0.34825872295578775,0.0,1.0,0.0,walk
10000,35,0.1543240776329431,0.43418968497015464,0.20224253732910485,-0.13005837981302734,0.07598502064219223,0.024818949907378273,1.2417416349238397,0.4211731700837657,0.061268558562545816,0.0,1.0,0.0,walk
10000,36,0.4519713088652955,0.75,0.510356191262516,0.07782986369213189,0.027519176562790314,0.03919208973873313,-0.19981232666048326,-0.08893338097097384,-0.7210614929142655,0.0,0.0,0.0,walk
10000,37,0.30149198883262046,0.75,0.3587429800429673,-0.016942017911645554,-0.08058067232261104,-0.12194679240471741,0.13098705060746002,-1.3989146148251268,0.9774306138987369,0.0,1.0,0.0,walk
10000,38,0.7140049840255909,0.25096292772773493,0.07687918331618775,0.26035271071546984,-0.037833719485144524,-0.0038510654672936316,-1.404477110210312,-0.7496549009320719,0.1473074860125756,0.0,1.0,0.0,walk
10000,39,0.44749920224623607,-0.1707360891101476,0.5182519575631265,-0.015079815481073329,0.10281526907237823,-0.0016776597064147043,-0.13579367390081615,-0.6459339753136751,0.08983055431303957,0.0,1.0,0.0,walk
10000,40,0.24857114580861817,0.1731290531948036,0.542169261067318,0.09045782113214894,0.07505813763588866,-0.07202173930757247,-0.1360027782258515,-1.0986149682839033,-0.11042342442785932,0.0,0.0,0.0,walk
10000,41,0.21061581783944613,0.21390085944738707,0.41022087395425144,-0.11836383580130232,0.08915488413499396,0.029781704000421703,1.1454595817443585,-0.513850154632583,1.2104170883557102,0.0,1.0,0.0,walk
10000,42,0.23023349762872705,0.6717083790260655,0.48831161289540453,-0.0021074662437459805,-0.11503532493236437,-0.06032216220254966,-0.8651940847768175,0.4753263408848507,-1.56087645951745,0.0,0.0,0.0,walk
10000,43,0.6947544647543654,0.75,0.17990356363072912,0.0327823345044984,-0.011754247208296011,-0.10280591229735662,-1.9604328938466455,-1.225738508959588,-1.6984891698877755,0.0,0.0,0.0,walk
10000,44,0.01549130771731865,0.16695567774967782,0.7855294690512823,0.03875774202606105,-0.07127803644819844,0.043437277430316286,-2.5243769698105343,-1.4024256226116358,-1.0532424389720039,1.0,1.0,0.0,walk
10000,45,0.2100823147996743,0.41074732056481084,0.2469624323596233,0.18211214976324092,0.07432932378906562,-0.15324113598692476,0.09360696909445278,-1.2363976175056401,0.5493545249694336,0.0,1.0,1.0,walk
10000,46,0.02546207041889241,0.1320408348396286,0.375755151284659,-0.11780103651590619,-0.2540505022225359,0.2554939176529473,1.100062195474582,0.7911216947123587,1.0701975356361162,0.0,1.0,0.0,walk
10000,47,0.3209021911382943,0.18628182867197124,-0.06322101534073254,0.18055953936897987,-0.03796813246946465,0.01515395501789357,0.7553442460329604,-0.700860403782664,-1.2895085144820018,0.0,0.0,0.0,walk
10000,48,-0.10256683418393694,-0.10944075440074351,-0.14801839840242872,0.051898746150315006,0.10920776463619282,0.1706612857276824,-0.19546258216828832,0.5495418154144331,0.9562192572306751,0.0,1.0,0.0,walk
10000,49,-0.28905106761182214,0.06056565700512246,-0.10834975981801807,-0.17422585106320193,-0.013212952828909531,-0.12922018636655777,-1.7550927198949637,0.1037841518924775,-0.650101438280437,0.0,1.0,0.0,walk
10001,0,0.08317267750722604,0.10519390540687534,-0.47338125732880143,0.03948441260066773,0.03576928414273142,-0.08067968736529024,45.00362573235073,0.11649372762460719,1.2654272357045093,0.0,1.0,1.0,stand
10001,1,-0.28534220418690176,-0.11658641175611979,0.43006392971125923,-0.05147611067118054,-0.05428392469617481,0.14900660105020724,44.086426666054926,0.9896496424967962,-0.631408818561155,0.0,0.0,0.0,stand
10001,2,-0.3822561722503287,-0.0634588446906856,-0.2575033814973944,0.17031673468586603,-0.11079205166844378,-0.06326088121487453,43.204145513238245,0.06398884350841355,-0.3985234875985414,0.0,1.0,0.0,stand
10001,3,-0.09053058583455519,0.0045990422745797,-0.08862453289821881,0.04998034888500912,0.019350743228290883,-0.11105962738756538,42.244793131766215,0.993830772236538,0.9471085996097186,0.0,1.0,0.0,stand
10001,4,0.22001334113432056,-0.3562415882809039,-0.1352169781115632,0.0875295474973476,0.11503210746483117,-0.048646581344579276,41.30204326222709,-0.8589885794955846,0.9896388340610689,0.0,1.0,0.0,stand
10001,5,-0.08542342122527172,0.4985114767937415,0.01397554715443193,-0.08805952216155619,-0.11443237596499918,-0.06378678244351432,40.378991189147904,-0.08514586887064128,-1.051635054087852,0.0,1.0,0.0,stand
10001,6,0.2834761449948633,-0.08877853839045188,-0.6060482771919234,-0.09339742587387101,0.07734041963637091,-0.12776168277238337,39.49134502080711,0.21100601253146653,0.5413396277578982,0.0,0.0,0.0,stand
10001,7,-0.013173420405703809,-0.12707375898346834,0.03146211726090769,0.13876939256983284,0.007104155889097452,0.159336398974316,38.57391461276145,-0.1151899619042744,0.9793938221719773,0.0,0.0,0.0,stand
10001,8,0.006411514632031837,0.14409918243979827,-0.19292681431561406,-0.08053280559914973,0.10785642456471563,0.08573052167495063,37.65058904114791,1.5145763675793569,0.7885186011885963,0.0,1.0,0.0,stand
10001,9,-0.11764355824520788,0.24069711635667226,-0.0054735185408217105,-0.006605910418463222,-0.03120665089472483,0.12852711417620144,36.6957265562548,-0.8865606884996808,-1.3516960561437816,1.0,0.0,0.0,stand
10001,10,0.2225635689680891,0.12390237209080737,0.18252650561909203,-0.15478420512361285,-0.0710359476892031,-0.1336975600509243,35.7881789235912,0.2471128545081432,1.4811288970646384,0.0,1.0,0.0,stand
10001,11,-0.07712249699739862,-0.016755453803304184,-0.1894658318970383,-0.029731117473907956,-0.02414864722673988,-0.10543110739245597,34.88176867694414,-0.645317691871456,0.8163770942891013,0.0,0.0,0.0,stand
10001,12,0.27046929576048706,-0.21157606411096508,0.21180827857577894,0.11035428593512926,-0.06086225745467938,0.07109605018835984,33.992675501160534,0.2353223890400984,-1.5578759179440609,0.0,0.0,0.0,stand
10001,13,-0.018166008814672875,-0.12432286919343656,0.1663391561503679,0.12549222711574942,-0.050925601483768526,0.0419939019577965,33.02068238824757,0.11186642882277856,-1.0062629743806386,0.0,1.0,0.0,stand
10001,14,-0.1490220281963928,0.07762874783065737,0.06224220891080289,-0.12709702653577332,-0.24092115123548458,-0.08382074762588913,32.169098734829895,-1.1444694427223074,1.3805250636051423,0.0,1.0,0.0,stand
10001,15,0.39979514997685006,-0.0868510995719527,-0.0897699493707072,-0.07731640297673684,-0.09439514382220163,0.017049509281763273,31.2143116010417,-0.3923848419084926,-0.50848694816347,0.0,0.0,0.0,stand
10001,16,0.2429171271433046,0.14722274221627765,-0.15753452904672274,0.12905673315939134,-0.14774440848864354,0.07745240162944408,30.30750043322789,0.24953693706955818,0.6470862556875173,0.0,0.0,0.0,stand
10001,17,0.11848427251904742,-0.11320648912033693,0.13081497690091592,-0.09583872650091052,-0.004937371344367999,0.0861897122596466,29.433536728168647,-0.132421639519803,-0.4038927098144383,0.0,0.0,0.0,stand
10001,18,0.09037293209430278,0.055435128465094026,-0.2372873573877104,-0.1570636727545468,-0.0503132332629118,0.05132132611689899,28.49466185060316,-1.1470219564276192,0.010711612850891047,1.0,1.0,0.0,stand
10001,19,0.20369940728717756,0.09679995811183324,-0.006123356557951404,0.03818281086652151,-0.07105473130309764,0.07372740486666768,27.5468242392526,2.5723360157025947,0.21070195655568402,0.0,0.0,0.0,stand
10001,20,-0.23300155467838932,0.05809794708490154,0.11803006999182533,0.17228207957073868,0.12477277321922624,-0.002661858931184832,26.62208867056452,-0.8905007023853554,-1.0752607425582614,0.0,1.0,0.0,stand
10001,21,0.21262134619726863,-0.3508599653430736,-0.4140858725084638,0.02224418608014809,0.020856692478219117,-0.12677373156356542,25.6840224662492,-1.9200736072149758,1.667264058319026,0.0,1.0,0.0,stand
10001,22,-0.007754457879956902,0.08157952842004933,-0.304557661698181,0.07673303537955571,-0.12578316099689035,-0.0391702990109755,24.799367751269745,-0.11696083159421256,0.30633324906817855,0.0,1.0,0.0,stand
10001,23,-0.75,-0.19024160285330785,0.34702018301778914,-0.04193591733718553,-0.1646865027493033,-0.2799859939145079,23.872128655500912,-0.7246457296032778,0.49806398193815904,0.0,0.0,0.0,stand
10001,24,0.1631177128976467,0.10097136890231234,0.25638055262873005,0.05811460410184102,-0.02747010716392489,-0.07187266767839065,22.97760073757647,-1.4767740189195802,0.33637807781973955,0.0,1.0,0.0,stand
10001,25,-0.19985245328217477,-0.05996187533154017,0.35407162316545643,0.12391931240314995,-0.10143453798016272,-0.13229272222204916,22.06963431036873,-0.47537712139482835,0.3661027436110077,0.0,1.0,1.0,stand
10001,26,-0.050353070383996196,0.2827036019872621,0.1109965815042493,-0.10963897589683005,0.014184120599242084,0.11511190032337278,21.104651562979853,-0.9440044657838286,-1.1173352229915372,0.0,1.0,0.0,stand
10001,27,0.014342697964047468,-0.1446756973978232,-0.15099174354004274,-0.01876195049459777,-0.23104835483789118,-0.1752908547076097,20.217098797093627,0.07281087928714448,-2.9190955261234848,0.0,1.0,0.0,stand
10001,28,-0.09391346818018702,-0.3650207724747455,0.014843481557407862,0.09681284649099875,-0.11803908598286016,0.13252743119336338,19.324529706155296,-1.2257369570027283,0.3980435788207462,0.0,1.0,0.0,stand
10001,29,-0.09674058285109034,0.1801486529467945,-0.3061476815070006,-0.10230217594478441,-0.03538862534138264,0.04273304089187527,18.357436087804274,1.0522652771045193,0.5785261283308079,0.0,0.0,1.0,stand
10001,30,-0.07688380927947117,0.3821017979511411,0.21954100203926616,0.008546096199219538,-0.09468823970848439,-0.20408566583262944,17.443574525037974,-0.5612012626991439,-1.1862837597603781,0.0,0.0,1.0,stand
10001,31,-0.1264862857423648,-0.11854630218154645,0.1739275454491247,-0.0981513766015864,-0.03477269986185517,0.03817030955111976,16.555638811606574,1.3501144971571353,0.020403457590473618,0.0,0.0,1.0,stand
10001,32,-0.20239906521441703,0.0789798348491187,-0.22535063673419964,0.1332676371739988,0.1879145875507475,-0.10649630126157941,15.587946942527243,-0.26001639872215215,0.6962926247632174,0.0,1.0,1.0,stand
10001,33,0.17843441141870248,-0.2471588560195756,0.04604905105959007,-0.18153904295637144,0.09116444217348837,-0.13759177151644805,14.662762027788196,-0.7288142978987652,-1.7279063539204067,0.0,1.0,1.0,stand
10001,34,-0.031583863233729484,-0.30040426304604784,0.25778572392140003,0.1632845669987164,-0.06126654970506415,-0.08904487111929396,13.781572546049619,-1.0028312257459522,-0.11364422560345398,0.0,0.0,0.0,stand
10001,35,0.15638687076941202,0.21487027086186553,-0.10362617641668037,0.06279826882783718,-0.08392835814292626,-0.0023405294661977805,12.85325845931531,-1.5504383627354794,-0.5363174198370415,0.0,1.0,0.0,stand
10001,36,-0.09596056723448199,0.005786381569864346,0.21372289175139092,0.07529029367541991,0.09171239586213559,-0.04066757559775134,11.94138571913222,-1.8267974927962498,1.4499285679616372,0.0,1.0,0.0,stand
10001,37,0.33803391656681736,-0.32408191022340843,0.3085351677176591,0.0025987007197754985,-0.17116528594787983,0.03703633600480893,11.03795856221922,0.23216456843957808,2.3933227005184676,0.0,1.0,0.0,stand
10001,38,0.1798996306782507,0.32578500688150375,0.3294913927996846,-0.05424337269357454,-0.03865302208704097,0.016666877068742186,10.132522776225324,1.849985650225871,1.0336513637899314,0.0,1.0,1.0,stand
10001,39,0.18265602301787628,0.11338579128537252,0.2995522002882835,0.09450907069020953,-0.006818919718336196,-0.10156513606905714,9.177659846593013,-0.04389607610190493,-0.0594717702594399,0.0,1.0,0.0,stand
10001,40,0.3607846003200804,0.06068405853492316,0.10914980261912478,-0.0842027560110066,0.07435045880400813,-0.2443428215419311,8.283882478930854,-0.7382304230382577,-1.001630163305594,1.0,1.0,0.0,stand
10001,41,0.2759894865169491,0.08683491894972434,-0.008804250789564805,-0.2803604060584984,0.13996797784743875,0.10484835660586106,7.324315196852164,0.9750386140764193,-0.2298176346098931,0.0,0.0,0.0,stand
10001,42,-0.2736214932999937,-0.2811135601905987,-0.2646141388399689,-0.11431753454045422,-0.07854067465623485,-0.016066989587147758,6.434029900141047,0.026345060656031895,0.691799259589677,0.0,1.0,1.0,stand
10001,43,0.046020401281927206,-0.00909229441790053,0.11788831429955945,0.16987185508970906,-0.06949342716340315,0.1616937521189547,5.549990429425452,0.014626310498979216,-0.7681597562734958,0.0,1.0,0.0,stand
10001,44,-0.09878082581208023,0.08656441818166903,-0.30508843305050737,-0.13903485370430727,0.01166112615840757,0.07444239669356865,4.585206481862618,0.290032229574425,-0.34391525203078926,0.0,1.0,0.0,stand
10001,45,-0.2534762360080454,-0.13196433470234034,0.107240574850706,-0.10842413392372613,-0.11099678480382555,-0.13469381239499356,3.66978422098732,0.7609114765338111,0.6596827908150225,0.0,1.0,0.0,stand
10001,46,0.3174738980958853,0.1882119860809419,0.1208202929134694,0.0126153885524951,-0.0800376860339782,-0.02918542338109391,2.7260136315986037,0.1943003555682963,0.05638855052182048,0.0,1.0,0.0,stand
10001,47,0.08108219662049915,-0.005211422841945823,-0.32109959910306857,-0.022315638245602593,0.13123786761739145,0.003547973128765338,1.865024385027331,0.8836889342299266,0.6324837374328148,0.0,0.0,0.0,stand
10001,48,-0.03059833088882465,-0.061321920857803344,-0.272109897001213,0.1466240579427945,0.03049664721747906,0.014074966974658175,0.8729506566472058,0.211686540021035,1.3009141225489673,0.0,0.0,0.0,stand
10001,49,-0.12359724619676624,-0.061005696508977456,-0.01904868196028805,-0.12242443572959527,0.19477462135610957,0.09005398040004055,0.0014087187538551875,0.8792288947942462,-1.7342937786092048,0.0,1.0,0.0,stand
10002,0,0.2540442628608658,-0.07928797859150369,-0.043130637378463135,0.02753445123213709,-0.06643310522012318,-0.06855740901982611,-0.29999596684096447,-1.097440321904204,-0.7586084226561942,0.0,0.0,0.0,fall_side_left
10002,1,-0.04320621557336839,-0.09148672036473467,-0.13660692841298483,-0.07334187625051605,0.11359905443040112,-0.03496944608007375,0.03640583754191631,-1.182221129212165,-1.7066492483146674,0.0,0.0,0.0,fall_side_left
10002,2,-0.17443365893525822,0.3732424244862334,-0.12928666583981593,-0.15161440640760906,-0.03422946459875339,0.12779995239182002,-0.8102932142715779,-1.416702320607983,0.2546497283214326,0.0,0.0,0.0,fall_side_left
10002,3,0.32230727876214954,-0.1707139881167599,0.2301481017831018,-0.07944131266255536,0.055844884259791394,0.019980472166683715,0.8291147075902826,0.5559894929759454,-0.5684165680116142,0.0,0.0,0.0,fall_side_left
10002,4,0.05224471499388851,0.3239146111643504,-0.06837859804719522,0.044634348980351526,0.0015906890496191987,0.1922284318622901,-0.9128965930090115,-1.2528187352366886,1.1738575483330627,0.0,0.0,0.0,fall_side_left
10002,5,-0.016941748094335442,-0.14349835760587365,-0.17227103834249405,0.05009547045317552,-0.031131890960227986,0.19177144664935197,0.9400316538798072,-0.2939235766305274,-0.10436152682803082,0.0,0.0,0.0,fall_side_left
10002,6,-0.1354257886836417,0.014665761752202917,-0.28394358821680105,-0.10124733698550589,-0.039426486928433625,0.057820597934148635,1.6737266688378933,0.22675485047851068,0.8068041568449732,0.0,0.0,0.0,fall_side_left
10002,7,0.05023626316695283,-0.36021060003967853,-0.0982545070622759,-0.24271575389378403,0.03702579052391914,-0.22037204327395066,-0.5245492384231671,-0.08790554647874702,0.12305640043445851,0.0,0.0,0.0,fall_side_left
10002,8,0.21208229804352882,0.171559405133065,0.3197962741348638,0.1866167823594559,-0.10557892144485734,-0.18177008136552336,0.8201519219526356,0.4668067865442818,-0.4965678562107634,0.0,0.0,0.0,fall_side_left
10002,9,0.10972873958855676,-0.35184021359045314,0.06795897124181448,-0.06930651360879406,0.17137130891615612,0.01279025818676801,-1.7283198622595128,-0.7331432008850942,-0.5805604864158344,0.0,0.0,0.0,fall_side_left
10002,10,-0.196341409799612,-0.3074706651161392,-0.1316677766366663,-0.09407859185679976,0.07396032524400598,-0.07350497375329791,0.45811091383897157,-1.4016839007077133,1.3898983243386813,0.0,0.0,0.0,fall_side_left
10002,11,0.02579422931174693,-0.1146477511698773,-0.0018519812405859495,-0.018589663262669406,0.23272008168780073,0.22053331950190488,-0.22202014725341238,0.3645959648826895,-0.670249300405428,0.0,0.0,0.0,fall_side_left
10002,12,0.09775253530939917,0.28499474899190963,0.15661625963379283,-0.08677625554891094,-0.1038906912603439,0.0054035141289572874,0.11638161605160213,-1.6151982928863293,-0.046661173505981944,0.0,0.0,0.0,fall_side_left
10002,13,0.14513115681119199,0.13952057501480364,-0.133853918789493,-0.12808507745510234,0.034750711270824554,0.2293518492335806,-0.7752379654882775,-1.024038374472393,-0.007008600615798055,0.0,0.0,0.0,fall_side_left
10002,14,-0.13028202022255794,0.17778668046202012,0.15348791327222408,0.15259157815356106,0.18670501660599464,-0.07942139068706933,-0.9813305453201617,1.1737905938664972,-1.3559526496458802,0.0,0.0,0.0,fall_side_left
10002,15,0.04368953451164289,0.04883548692104416,0.4565585311141544,-0.09653581068433868,-0.016106033204188352,-0.03288525600129112,0.48294644334922315,-0.6163098481979109,-1.2940600371234994,0.0,0.0,0.0,fall_side_left
10002,16,-0.1185128263107309,-0.212469166517279,-0.17840349673004038,-0.036327972024830485,0.08740328327187398,0.21474437197717988,0.2859077523369825,-0.912328452417389,-1.0967180612933003,0.0,0.0,0.0,fall_side_left
10002,17,-0.021557350003731702,0.10326399666928152,-0.26784487357286657,0.04384755308481528,0.0279149739824828,-0.4667330890377961,-1.8277638175079962,0.01803694820245253,-0.5446263914202457,0.0,0.0,0.0,fall_side_left
10002,18,0.12109945405566352,-0.01622311606558808,-0.07223403029632927,0.04420509969997422,0.24335447844427982,-0.005237012658614093,-0.10540138708358297,0.04164086871087864,-1.8902977069528448,0.0,0.0,0.0,fall_side_left
10002,19,-0.25224015963511265,0.08174298627183077,-0.08045077270265813,0.017820019690570857,0.08811003028680868,-0.00233126336837558,-1.9044030241238794,-1.370564708137403,1.3570992949820673,0.0,0.0,0.0,fall_side_left
10002,20,0.011760031399619363,0.032847905387898266,0.08126601325085173,0.007243973492308459,0.07543087379557327,0.019836715717373485,-0.6316948934804658,1.1145168772186145,-1.9295523636205005,0.0,0.0,0.0,fall_side_left
10002,21,-0.028607005782330545,0.07896029558490435,-0.13088489917464283,0.08118066992916878,-0.05099363730444334,0.1259541896180154,-1.460204104107821,-2.0087246318855083,0.02544262626365725,0.0,0.0,0.0,fall_side_left
10002,22,0.2390719974416644,-0.06407259771098282,-0.09815555936988117,0.09838182138384123,-0.02108126447327124,0.08995310822600577,-0.5083291763861707,-2.8626159470078445,0.023128686977644284,0.0,0.0,0.0,fall_side_left
10002,23,-0.3821975822393823,-0.2803741269189813,0.20631179722322285,0.15146503045704549,-0.1132115382063346,-0.14490209137467325,0.6634913273287958,0.5154379420431032,-1.3814952331444748,0.0,0.0,0.0,fall_side_left
10002,24,0.01587766174400613,-0.1544034077837693,0.08843579607230811,-0.016020235731820154,0.10202556792850438,0.004318761154088149,-2.701346521963506,-1.5169631209009595,-0.8060750266221363,0.0,0.0,0.0,fall_side_left
10002,25,0.2700762577128285,-0.14659428001190292,0.041619451744934303,-0.07187186186787714,-0.044598299854758855,-0.08792516774778195,-0.4434075480765141,1.4227227113015009,-0.7096571610465986,0.0,0.0,0.0,fall_side_left
10002,26,-0.13922143756412741,0.0973698898839978,0.20910011874860754,0.13538541292757034,-0.15011101387718823,-0.0719267813211773,1.1919761829868727,1.6427398384903014,-0.46702594819921867,0.0,0.0,0.0,fall_side_left
10002,27,0.3892147729410462,-0.08222383521913867,-0.1495200150923904,-0.1759737944831615,-0.04683326166500163,-0.09155968656453184,-1.9110195095711486,1.4979667105942625,-0.7240396333058161,0.0,0.0,0.0,fall_side_left
10002,28,-0.20875466773105386,-0.313333494082892,0.21249412044547342,0.2210252164403918,-0.012924551326168966,-0.08494343949068141,0.45408298663771707,-1.7355147390423526,-2.1860065582138537,0.0,0.0,0.0,fall_side_left
10002,29,-0.017126590147060403,-0.45312324786656283,0.2633440385167248,-0.21734441548315855,-0.11721224292416124,0.00037382933574463956,1.794121573060369,1.0952662576456536,-0.9681056866565466,0.0,0.0,0.0,fall_side_left
10002,30,0.029665315950112528,-0.06403460017554502,0.134268234841597,0.09005133691742714,-0.04432831942031987,-0.12505566128544685,-1.203434064577271,0.34267698977330563,1.3914799521800878,0.0,0.0,0.0,fall_side_left
10002,31,-0.09616026199346164,0.2578438789552156,-0.038206062029818105,-0.1498349191208084,0.05675583243580498,-0.019147079913148124,-0.1550506118505714,0.20686847701861458,-0.06928690612398278,0.0,0.0,0.0,fall_side_left
10002,32,0.048027901470709955,0.08162994858777683,-0.01875317343474126,0.10214098191374522,-0.018490405956750063,-0.20824789825913315,0.857212354727261,-0.1433190265682756,-0.8091729569011832,0.0,0.0,0.0,fall_side_left
10002,33,-0.32666130070080623,0.049475803149831216,-0.01720122463254037,0.12662658920683167,-0.07689408565906178,-0.24557056493354468,2.1760175155442063,0.7013335696571411,0.9371410447402139,0.0,0.0,0.0,fall_side_left
10002,34,0.07331896323142839,-0.16132454905082788,0.1431630223797051,-0.08324723386676275,-0.08905090277716221,0.10628041733977135,-0.8769389104556081,0.0002472680900879598,-0.6994893034786742,0.0,0.0,0.0,fall_side_left
10002,35,0.1859938673146661,0.11915977014456522,-0.08156293927888353,0.10593239308319216,-0.023103398647161336,-0.13458321419141336,0.2668422732165299,0.6704939749523586,0.1966454289999081,0.0,0.0,0.0,fall_side_left
10002,36,0.18733769104072376,0.29696320920515035,0.2522998843215131,-0.2211674418796214,-0.18021931353433668,0.06566795794138178,0.8104448618582291,1.564257012576779,1.7948935174039107,0.0,0.0,0.0,fall_side_left
10002,37,-0.3419752741837663,0.20194646884814835,0.2810582024900259,0.11612424513810299,-0.3152576602768388,0.03501166068064513,-0.36178473381955056,-1.2767814799838884,1.2199664992607318,0.0,0.0,0.0,fall_side_left
10002,38,-0.050039857141466526,0.015260762074560855,0.059735310658449434,-0.19312637899766383,-0.019750176338836866,-0.14953676138620794,-0.09783219096883125,0.055961311379310805,-0.7665168965795138,0.0,0.0,0.0,fall_side_left
10002,39,-0.36113565340363085,-0.2314017496357963,-0.0408316618833717,-0.022071049053456266,-0.03683890908247686,-0.0863745833981358,-0.7091317129308049,0.4916474446635265,-0.212060171721379,0.0,0.0,0.0,fall_side_left
10002,40,-0.12905362390523728,0.07273874753445521,-0.3533317587445671,0.1624311189990461,-0.02658935150896699,0.03788380178709858,-0.13852950526894592,-0.6153172362805713,-1.3441219632427255,0.0,0.0,0.0,fall_side_left
10002,41,-0.03099230435242634,-0.32049213952497985,0.5200514660041612,-0.040440788943690284,0.08981104529243082,-0.07884757160204545,1.545205131005327,-0.7239276061366187,0.8886651549657543,0.0,0.0,0.0,fall_side_left
10002,42,-0.011826624114539615,0.07103228192794472,-0.6316550148526939,-0.03152812283691551,0.09960144090550485,-0.11453672657009392,-1.0390390092177209,-0.607752291821932,-0.6166903561254163,0.0,0.0,0.0,fall_side_left
10002,43,-0.060976389252603416,-0.008291078823249358,0.09192512646738829,0.05203306517709212,0.1139007028692871,0.022402599408435794,0.3481464011152178,0.9068371674024926,0.5507941298637846,0.0,0.0,0.0,fall_side_left
10002,44,-0.07017705844360035,-0.3348397379817874,-0.12089094181004684,-0.07292036337264161,0.07511692426704927,0.06654021737705788,-0.43185138444360416,1.9667503126554566,0.6772835892928897,0.0,0.0,0.0,fall_side_left
10002,45,7.04179853899544,6.9384518591799855,4.301907022517832,1.8705601785087096,2.385795472103111,1.8534440534782068,0.9147412043777399,-0.35076221510460703,0.17500294990713772,1.0,1.0,1.0,fall_side_left
10002,46,5.598352358926592,5.735197748533174,4.2266445141062885,3.416497967948275,1.6877572518905102,1.3752311312578045,1.3716634748197245,0.5545335366178663,-0.7818499024051161,1.0,1.0,1.0,fall_side_left
10002,47,6.231453864130092,6.893409858853557,7.018093228938645,1.6300689565886866,2.5122836577769974,2.376603416210687,-0.5706032234696027,0.008844400180547267,-0.8834023633635658,1.0,1.0,1.0,fall_side_left
10002,48,-0.02906003931061816,-0.11158673056627719,0.3372291128835436,0.07725271973509092,0.09157112142810787,0.16397860529473146,-1.2118993120718429,0.4318847751376971,-1.5728388879397601,1.0,1.0,1.0,fall_side_left
10002,49,0.26749955544063114,0.10268126858979307,-0.21955020619856208,0.015141244630636453,-0.004397086660713398,-0.08056552822345169,-1.0339246099842447,-1.7140392851996642,0.8392845214170901,1.0,1.0,1.0,fall_side_left
10003,0,0.07512361580750324,0.03938904227978125,0.21127386690737884,-0.16316153492844007,0.023677110518886907,0.10860051608168257,44.96191219197169,0.36959964474434437,-0.057744621091660474,0.0,0.0,0.0,stand
10003,1,0.10485341468671773,-0.046660163040606814,-0.16034421532215662,0.27201408389827564,-0.046374380363474375,0.1193767674842666,44.095060756175,0.2903578775781972,0.6710245252959894,0.0,1.0,0.0,stand
10003,2,0.07802829571311548,-0.04336366643024307,-0.2584349901890977,0.042693939136127276,-0.1499337096353424,-0.06796289838910036,43.13556262852416,-2.2048709659988153,0.39541736860789856,1.0,0.0,0.0,stand
10003,3,-0.14342429349700306,0.0029218434347676094,0.321507241595296,0.10329202042347037,0.12477862274748219,-0.17677422775125262,42.249480377618106,0.7048486278305871,0.52949476421747,0.0,1.0,1.0,stand
10003,4,0.12958463672496387,0.23455414253881665,-0.16926521587336885,-0.09713322762419976,-0.0667238353621886,0.02470182476152612,41.329350698424186,-0.7553961136270706,-1.3440872207623693,0.0,0.0,0.0,stand
10003,5,0.1997860188715962,0.053395708388538896,0.23049348391767302,0.018104354692554867,-0.026785488275796195,0.13091304815838511,40.39132067476777,-0.21038819236622505,1.3044753325789262,0.0,0.0,0.0,stand
10003,6,0.06474215517060378,-0.039925453299654,0.20753184280376613,-0.012109700397348894,-0.11259699394051627,-0.0596177152800687,39.48935664444147,1.0618884497131913,0.9108023548278019,0.0,0.0,0.0,stand
10003,7,0.5217475813416769,-0.12430128613023393,-0.0611443373732053,0.019230407318776684,-0.03703989259091223,0.012056562474105484,38.60208050714472,0.03950030268946015,0.5741755469994312,0.0,1.0,0.0,stand
10003,8,0.49220825130326784,0.13091533466345998,0.38320081848657,0.1329985934526176,-0.012207484559315696,-0.0560809314712898,37.64867178448243,-0.675750863411525,-1.7584140007784201,0.0,1.0,0.0,stand
10003,9,0.489634768741493,-0.05859142669834763,-0.2509665875817833,-0.12530603894921916,0.03648385020302548,0.11653045372277183,36.734924581650425,-0.0950943357114222,-0.8999677624805499,0.0,0.0,0.0,stand
10003,10,0.16224645549426744,0.36854179913889695,-0.16026243638511486,-0.006403530445439903,0.15245868111633332,-0.04122884130570046,35.78458657506382,0.4925868802322638,-0.6279332144814042,0.0,1.0,0.0,stand
10003,11,-0.07718184838564884,0.18554317108396043,-0.13729531323722516,0.047882354920692316,-0.0004489174535848373,0.12854811182013265,34.903126282299894,-1.3895909111754985,0.008057410211440144,0.0,1.0,0.0,stand
10003,12,0.21746147681727854,0.11369388064116288,0.4860916563019904,-0.04499901871359822,-0.0475310787315837,-0.007747526983934168,33.948299960902034,0.9734088993064067,-0.4318147027998076,0.0,1.0,0.0,stand
10003,13,-0.08355457421568738,-0.05819924935264219,0.2717997956547175,-0.08568320035954531,0.012599835320682762,0.0005553738409393369,33.07327882723187,-0.5074847933333504,-0.08414830797410276,0.0,1.0,0.0,stand
10003,14,-0.0969300921865445,-0.12147206058477011,-0.15248161067181723,-0.019701765274116927,0.08022453264146162,-0.17068090803298466,32.11933333289128,-0.8746385119695232,-0.9567295025242858,0.0,0.0,0.0,stand
10003,15,0.18343295972390541,-0.16015149506202428,-0.11393605307967135,0.08584348233761287,-0.024922795620583735,-0.004156999154866748,31.21541731595425,-0.7414549306045203,-0.8103167994710708,0.0,0.0,0.0,stand
10003,16,-0.07827156458586894,-0.32289270252786256,0.027320785786645867,0.06929591484575055,0.1652088263003514,-0.1223274504690039,30.301931743783868,1.1220236082330879,-1.4150071076112103,0.0,0.0,0.0,stand
10003,17,-0.12049818661073522,0.2989455393604546,0.23560645218676032,0.027008604435199833,0.05647532741649076,-0.005422625992264233,29.402126461061226,-0.21780018081451855,-0.8667340052200629,0.0,0.0,1.0,stand
10003,18,0.07243921212552146,0.15803834386760585,-0.14159691950183842,0.2098959657209322,0.13527841741502944,0.01281298510450944,28.475905173202666,-1.7969348102699014,-1.1644870496605575,0.0,1.0,0.0,stand
10003,19,0.1847668798154238,-0.02415441481861131,-0.09787937482373607,0.10145255289307746,0.037503881056458924,0.07469796331329837,27.557952447366805,1.0198654597596215,0.7479489080111023,0.0,0.0,0.0,stand
10003,20,0.0815958178901213,-0.1852783075999577,0.020861848110818242,-0.06593799366292262,-0.08561579436426282,0.00781505956660345,26.645297553618153,1.7575197706640273,0.1679127655271087,0.0,0.0,0.0,stand
10003,21,-0.13995660976207203,-0.18497480335485728,-0.14229708590840975,-0.010331182715129613,0.08319265562092554,-0.17239810225071955,25.74475019762897,0.09279640259038306,-1.3522341323501041,0.0,1.0,0.0,stand
10003,22,-0.0504959860058036,-0.2713381638352989,0.08311547333142544,0.03706988095506581,0.07977000587171797,-0.077708625291581,24.820883219054153,1.4676054198384585,-1.0765938898347078,0.0,1.0,1.0,stand
10003,23,-0.4362769370754921,-0.010413105929233299,0.15262385758221628,0.07816075907276351,0.10462989812329429,4.3492778950261074e-05,23.85432528029225,0.24766283328042077,-2.6628171995070193,1.0,1.0,0.0,stand
10003,24,-0.004442105772211132,-0.060512012882647015,0.29699941630452475,-0.014612846158405853,0.1466657177413587,0.03977058031916667,22.969330787074323,0.5555078331903561,1.4699347931250621,0.0,1.0,1.0,stand
10003,25,-0.14414236671014974,0.0024341359948084227,-0.09659582369944428,0.0937875877029192,-0.041133541750189094,-0.12329691169085263,22.042630091758365,0.30029113037352984,-0.5786637939414776,0.0,1.0,0.0,stand
10003,26,-0.0036147862516622414,-0.11484487834442246,0.0692308166728096,-0.06447192241696094,0.017235231746650224,0.008195771206079857,21.11393352947505,0.05676584774161461,-1.1226913265539213,0.0,1.0,0.0,stand
10003,27,0.014644841474972548,-0.15249618812348767,0.15235105380016345,-0.22534814306419654,-0.11327112205654566,-0.016887936096882855,20.183096156868544,-0.6223604290356523,-1.4751263779931298,1.0,1.0,0.0,stand
10003,28,0.3158756550188637,0.07001539335532775,-0.038136030768544535,0.049303311789904464,-0.0350270979354962,0.02600050712974799,19.300541552139713,-0.0936548898417796,-1.2571481775871736,0.0,1.0,0.0,stand
10003,29,0.03282046372680689,0.16138458637870526,-0.15654016711333668,-0.17732949219702607,-0.04554096277954955,0.01461992677934942,18.3851157712762,0.3515827885817051,0.382192709921148,0.0,0.0,0.0,stand
10003,30,-0.1597041370447284,0.10455866062512481,-0.09758113599125673,-0.13791362965489254,-0.154773049557693,0.17963182392670426,17.464199097485224,-0.534515874600952,-0.05160423081424038,0.0,0.0,0.0,stand
10003,31,-0.3458125095842151,-0.30681851370457186,-0.09330398584012062,0.14040210308467063,0.007918126749640233,-0.09637812951662889,16.475206864987356,-0.13577883446853523,0.22929383462182382,0.0,1.0,0.0,stand
10003,32,0.02724045821708069,-0.03690729638109988,0.19888543347151483,-0.006017730618437295,-0.12409197810773565,0.09924443330238811,15.594393730864978,0.3859528679630373,-0.09074740913428393,0.0,1.0,0.0,stand
10003,33,-0.08178148757862863,-0.1362620790796093,-0.05997978322018188,0.1147164974678217,-0.006848165931049198,-0.07512272667947165,14.667008655737664,-0.3709411673283208,0.814484137357435,1.0,1.0,1.0,stand
10003,34,0.060136308886097944,0.0034806433414135557,0.041224134036334924,-0.04540580368414512,-0.010857417459698874,0.06492523912223193,13.785959349952591,-1.1745603779929312,-0.46067284306513273,0.0,0.0,0.0,stand
10003,35,0.26101046863083205,-0.40310833625496933,0.05664258349647892,0.0686095279471543,-0.08341429622000945,-0.13808068580128158,12.851796999427597,-1.594287875335374,2.1277477228122366,0.0,0.0,0.0,stand
10003,36,-0.06010114520643556,0.027954886072779433,0.06381297910147793,-0.15382440531927533,0.12020221284968016,0.0647664053751723,11.972996312000165,1.1404880087085958,-0.805680113646208,0.0,1.0,1.0,stand
10003,37,-0.09065849218259409,-0.10018270034333719,-0.008580720806947108,-0.03714474702284445,0.019671355089022104,0.07860740526557952,11.053453547229338,0.9838412915869692,-0.7146758848456161,0.0,1.0,0.0,stand
10003,38,-0.031083702277688034,-0.36685492867083047,-0.1099808610266935,-0.0016343189060485093,-0.04396270835745144,-0.1140175387244342,10.10853875150588,-1.6237029901361906,-1.1393872101368319,0.0,0.0,1.0,stand
10003,39,-0.2974123557449068,-0.1960680037584753,0.07512730863029896,0.0454875261925127,-0.06587151274536304,-0.11490498598776716,9.150943179684159,-1.1497554596520176,-0.8422823978570869,0.0,1.0,0.0,stand
10003,40,0.14338131821197692,-0.1815590246095468,0.4070186467799294,0.020980719575619578,0.18042846317724065,0.032372829829657335,8.237819428609939,-0.06417395623303464,1.7994279904358335,0.0,0.0,0.0,stand
10003,41,0.30402526701692156,0.005003508067367739,0.11943617098293952,-0.03378221229973419,-0.09383253228508012,-0.0908913875116123,7.3479893526648885,-1.3450390282302926,-0.6220898988917307,0.0,0.0,0.0,stand
10003,42,0.22980195246905732,-0.23385813999163033,-0.033659275715283224,-0.06279730845630024,0.006289738508787999,0.08835043050668456,6.4643352706390385,-0.3234844608336354,0.05455630321278313,0.0,1.0,0.0,stand
10003,43,-0.1684487170579764,-0.07019075304081823,0.3232334621383668,-0.023113930467344567,-0.1120890690605006,0.14166885436637977,5.521988967423875,0.9219858700101871,-0.5937693370715993,0.0,1.0,0.0,stand
10003,44,-0.08254208976588442,0.40299421928624446,0.10012813788184027,0.03796601441531669,0.03999695104346381,-0.028764688457424872,4.599311282524391,0.5395800840276174,1.305582668751951,0.0,0.0,0.0,stand
10003,45,0.1553579528933464,-0.2074982902886927,0.06850771113508952,0.04371166826035989,0.01251102848390168,0.14337027874778524,3.675248877570652,0.4885847738584091,-0.9749740640033295,0.0,1.0,0.0,stand
10003,46,-0.15457246995326382,0.15756667968263277,-0.06486695755032992,0.08940806605091924,-0.011419491622602682,0.005269244542950982,2.7203198122090684,0.5804105596654947,1.0956311024014505,0.0,1.0,1.0,stand
10003,47,0.17226276342940747,0.12010880448178375,0.39629248182491006,0.1109975101762965,0.18191581755375416,0.09423189766485934,1.84015051667611,1.0327442855119566,0.12156943496765696,0.0,1.0,1.0,stand
10003,48,-0.1449812814600382,-0.20101850868873863,-0.2683800042362712,-0.08511386830081064,-0.05751323980852558,0.027820073607692144,0.8964717033888779,-0.6841694802624043,-1.3219938671319649,0.0,1.0,0.0,stand
10003,49,0.021567004318884836,-0.1412845220465603,-0.20753362634409425,-0.08627991098162535,0.1499316313609276,-0.013473849322341587,0.005159131127631223,-1.4666465984182824,-0.7669417440455507,0.0,1.0,1.0,stand
10004,0,-0.027883178985089407,0.024448906541693412,-0.0405574394704801,-0.060033091987925294,0.09521068411758138,0.05103258248938925,-0.013886398954347274,-1.0507300768919858,-0.4346962421782726,0.0,1.0,0.0,sit
10004,1,0.1760536714799281,0.19768218643005506,-0.02594963191680527,0.1361155143299843,-0.13782952275374077,-0.11978077017789307,0.9117143016350836,-0.67205593099669,0.7780339652577999,0.0,1.0,0.0,sit
10004,2,0.3320313609295609,0.04054387533623516,0.032979201763448124,0.10548219942386955,-0.03551928609597564,0.22666463989834415,1.8455320629488219,-2.382815872376977,1.3983264235036583,0.0,0.0,1.0,sit
10004,3,-0.06820018490488618,0.0016394731234385578,-0.08756559036440159,-0.08615538513771871,0.02653914955351894,0.08096953380572078,2.779779427940298,0.27387874708545584,0.7255995380131628,0.0,1.0,1.0,sit
10004,4,-0.027760854587470376,-0.5804432285790545,0.16185755254345174,-0.002095913465517824,0.05090841425914698,-0.08122923486364253,3.658648057024643,0.04429774138475202,-0.8562959774834998,0.0,0.0,1.0,sit
10004,5,-0.03622221523494751,0.09309035271630597,-0.09737057265668281,-0.014339507134089288,-0.018858938260171217,0.002703883025933277,4.605413428390679,0.9955745260553532,-0.48874233038472603,0.0,1.0,0.0,sit
10004,6,0.161510271703075,-0.15366082702961614,-0.23352867863608612,0.11965579545100889,0.04198821310525509,0.15810314839894374,5.461384173903004,0.6491736713009041,-0.47215679749889067,0.0,1.0,0.0,sit
10004,7,0.13609884046276016,0.3586369232650261,-0.4995293600405905,-0.11947712811181421,0.1314840375020447,0.2899234457433676,6.424536360493953,1.1114604370752827,-0.9840278026865736,0.0,1.0,0.0,sit
10004,8,0.008283956441143506,-0.004053770386100351,-0.3186601236192055,-0.015385801180865648,0.08276175468218795,0.06012186935627139,7.359279683463267,0.6509807391864081,1.0892283412545807,0.0,1.0,0.0,sit
10004,9,-0.11409005789590858,0.2389715964403046,-0.01701958482112393,-0.08398226482576276,-0.11708745995157749,0.07979774783318125,8.267032481657145,-0.7519049119586493,0.08754046015444747,0.0,0.0,0.0,sit
10004,10,-0.05609074577244916,0.2644721064216057,-0.08385243243149462,0.05207488748128329,-0.0545696257918411,0.13210076627177,9.177651799340861,0.093467683439304,0.7724685272798304,0.0,1.0,0.0,sit
10004,11,-0.27159042275379597,0.18903201550654433,-0.1720261053623104,-0.0650340998838904,0.06035137438574688,-0.2702461053224489,10.08431172062345,1.5615330476583318,-2.667706539333232,0.0,1.0,0.0,sit
10004,12,0.12543912607544933,-0.3196494341071843,0.11076159567311722,-0.09821630539263801,0.10428464108311095,0.05387849871090756,10.991856695852078,0.34737581551665586,-1.2559494399481639,0.0,1.0,0.0,sit
10004,13,0.1773143670312877,-0.09052971711736196,-0.09017282742321697,0.08721771791402559,0.21207793212287918,-0.09858628733876018,11.945157042728388,-1.2029014459770668,-1.3576243623934015,0.0,1.0,0.0,sit
10004,14,0.14096675709008438,0.15997070459348903,-0.24577688722041652,-0.12798200532131493,0.11592312043596137,0.003813914743216025,12.848389759409523,0.13106213163053987,1.2422588290458927,0.0,0.0,0.0,sit
10004,15,0.29410926918020086,0.0041231937012416835,-0.07682158966386354,-0.15480090453572926,0.0712214284636783,-0.004319574359143369,13.782831373036103,-1.1437925167953351,-0.2992385904105751,0.0,0.0,0.0,sit
10004,16,-0.021214972313617773,-0.29632563243920634,-0.234118394440928,0.03505472852775274,0.06518503306726357,0.04935010635131103,14.699434997305891,-0.5001910500254135,-1.0586964497090265,0.0,0.0,0.0,sit
10004,17,-0.09017144591953895,-0.2591766598714846,0.2639569976945053,0.14674731696297152,-0.019093211696211726,0.08613091375248244,15.61607535479241,1.0113792070577092,-1.5653525988079864,0.0,1.0,0.0,sit
10004,18,-0.1657616973703783,0.2763248679760345,-0.0038515704203203396,-0.21364062252711263,-0.04537405725047558,0.12380014498075169,16.525650102401553,0.0525418241547178,0.811901124509339,0.0,1.0,0.0,sit
10004,19,-0.06000849929849575,0.121654638456235,-0.05219370625528059,-0.04511727089762853,0.059701894950655345,0.13033795837276907,17.44739810747681,-1.27591188499899,-1.2332697243124289,0.0,1.0,0.0,sit
10004,20,-0.19867501172314447,0.23317202806384482,0.01389825278683634,-0.08898977701487938,-0.027122254112527742,-0.28087890254888404,18.36213549055338,0.29167470583374344,-0.7556708035267254,0.0,1.0,0.0,sit
10004,21,-0.09316435019739291,0.2012049209037457,0.01758408691819822,-0.032757738280685476,-0.20700865364405574,0.09432928617482951,19.290225329002,0.6873371000492636,-1.0339281982930224,0.0,1.0,1.0,sit
10004,22,-0.021520794067878615,0.2955719831422875,0.16691903510834452,0.020891926754348013,-0.18887811234924126,0.09139511166629243,20.228369987716842,-0.5483860297313472,-0.41076939980306826,0.0,0.0,1.0,sit
10004,23,0.0030332487726285468,-0.4328246124875611,-0.2670947824377121,0.10871354183766012,-0.13954993868993457,0.04155270258027454,21.112142880711506,0.6371974659413203,0.39786812785510395,0.0,1.0,1.0,sit
10004,24,0.30812806892819844,0.2765743063688653,0.1121751504523884,0.09306266058238206,0.00712869083627638,0.08865948392268097,22.04611181227091,-1.0269558380204393,-0.4051220367795027,0.0,1.0,0.0,sit
10004,25,0.07649158643678887,0.21347376259649706,0.07533812765359353,-0.06506012606893101,0.05055644278961884,0.10927442172431492,22.956539756496767,-1.485311722514247,1.095139809905842,0.0,1.0,0.0,sit
10004,26,-0.050640649611897626,-0.04828587362852344,-0.00832333153800532,-0.017393045456620397,0.12736114203711243,-0.10412061773636007,23.92611157202264,-1.2060512977184483,0.3703695125477483,1.0,1.0,1.0,sit
10004,27,-0.29559626193751143,0.1446756413853817,0.31784490331508586,-0.09373932469038898,-0.047516699368474934,0.0886735721163067,24.800110913161458,-0.2112197404690294,-0.3789737806157691,0.0,1.0,0.0,sit
10004,28,0.08322957895576255,-0.0896385639973801,-0.2681399625882903,0.07607734286279538,0.1861233097209965,-0.0798227068950881,25.730220805099226,0.6542353004975617,0.4093724844308559,0.0,1.0,0.0,sit
10004,29,-0.1281479729207996,0.25614768034988905,0.10357909134885239,0.03267779799048118,0.06236233028534744,-0.013725899984226075,26.627128508477647,1.031513530900368,-0.0793162886563665,0.0,1.0,0.0,sit
10004,30,-0.0022132493353942363,0.3245442882481034,0.436682963449192,-0.10083573966910622,-0.06172117465456865,0.11967778863368815,27.55184686991988,1.4547436231827504,-0.2763010952300966,0.0,0.0,1.0,sit
10004,31,-0.12624289507852948,0.36248523504299357,-0.3236715936389513,0.043146567840360084,-0.14022550350259777,-0.13501567823627586,28.500732114607523,-1.9580656620591594,-0.20486210369546712,0.0,0.0,0.0,sit
10004,32,0.043638100827408224,-0.19415239812227636,-0.021662655608346102,0.12637990386230974,0.13267231685099967,-0.13727323288707413,29.434133879194093,0.08000161791997504,1.7422638989581676,0.0,0.0,1.0,sit
10004,33,-0.059997818825107296,-0.5810093311061514,-0.10274622462915683,-0.16828728938961016,0.014680210534022624,0.21251669690639508,30.322884358718632,-0.19797473848861918,0.6009016326779906,0.0,1.0,0.0,sit
10004,34,0.17642551856332137,-0.27805356949566196,0.12284642387279095,0.061225355463106326,0.12183352366354944,-0.0342445839883441,31.233714632359636,-1.1453611589422674,-0.7458743847151054,0.0,1.0,1.0,sit
10004,35,-0.055716545290728774,-0.4606911709327872,0.25510214955004296,0.14255093973541585,-0.2558133827279605,-0.009783424383667468,32.17351691280845,1.3525466481468642,0.5678130337559107,1.0,1.0,1.0,sit
10004,36,0.05043784422917367,-0.3127279359727089,-0.09616749768253786,0.01720348016146952,0.17341180965603945,-0.04476967053468214,33.092959852572676,0.1857368983205102,0.7828205851894211,0.0,1.0,0.0,sit
10004,37,0.13535869282711113,-0.09317364950790617,0.11199924496233973,0.1973018312677833,-0.16617470829577083,-0.18239829086482431,34.01881600175633,1.1077592912050562,-0.63144899602968,0.0,0.0,0.0,sit
10004,38,-0.005136242000613318,-0.019008617662114872,-0.09888803574180967,0.12783998895465598,-0.014817276383274606,0.14187846901424805,34.915825908389344,0.38977509260877835,1.2155480354749792,0.0,0.0,0.0,sit
10004,39,-0.1247385840347135,0.1473274304218841,-0.01765379821366296,-0.044122210586450515,0.15557747118976747,0.03574949037847626,35.803909059346424,0.6155614812651042,0.9196245221243395,0.0,1.0,0.0,sit
10004,40,0.05616136678466828,-0.26149227959543103,0.06869655732650856,0.09061783190602016,0.07579030746509932,-0.13004169271784155,36.73543201150984,0.49437193618601405,0.0002494227085920904,0.0,0.0,0.0,sit
10004,41,-0.3608931216411812,0.4043363313558711,-0.4119827684994952,-0.05234968280312526,-0.07676403303243608,-0.08984233621070652,37.63274331735371,1.0588614584399882,-0.7887849736089501,0.0,0.0,0.0,sit
10004,42,0.07076906933637789,-0.31642650765193225,-0.017438876913429498,-0.052895455075745605,0.1719180238707263,-0.06177548764487281,38.56306228150236,-0.30893986418106784,0.08280677411878662,0.0,1.0,1.0,sit
10004,43,0.07384539783922527,-0.03293541750807478,-0.12378595401357619,0.140245726898801,0.03689371665427285,-0.0167251416266948,39.495246642877404,-0.44735581511345196,2.0513109808632493,0.0,0.0,0.0,sit
10004,44,-0.008688791806284329,-0.11939107224178477,0.20924497447732346,0.13076069570493926,-0.1355090812032544,-0.04026727610864421,40.42015273858581,-1.0008756864795918,-1.4288183361445446,0.0,1.0,1.0,sit
10004,45,0.20406379673603717,-0.030707632884499486,0.18003688587680267,0.1624631046290025,-0.007461490775860457,-0.08247138270934821,41.36184692772489,-0.7066383966452537,-0.6914331435123273,0.0,1.0,0.0,sit
10004,46,0.18456987384119042,-0.16035278988331567,-0.11834431209959519,-0.17219933463821774,-0.01780434500369705,-0.09643895784128105,42.2491006330173,0.4915220375979623,-1.492210741607898,0.0,1.0,0.0,sit
10004,47,-0.22628310625992062,0.059193687695032596,0.2615376441842576,0.027998455699442912,0.00880577433321812,0.080593488886664,43.13778642180406,0.1296862342988595,-1.4016995648669244,0.0,1.0,1.0,sit
10004,48,0.0879738909698369,-0.11015316193714987,0.038378462258241194,-0.18957262711173894,-0.0035201655633022716,0.010015875051453276,44.110229532685345,-0.7351071190752212,-1.402223882803988,1.0,1.0,0.0,sit
10004,49,-0.06926335723066006,-0.012340497565786118,0.23357665767380223,-0.23665385386189372,0.019331871635769597,0.03963039431076277,45.01594456664553,-0.574768037295514,-0.46613228647873234,0.0,0.0,0.0,sit
10005,0,-0.23373197708679389,-0.10764591641665278,-0.007537678909377099,0.1170067278270627,0.14771151619236395,-0.12909996195423626,-0.09396107395777434,-0.4274436967339441,-0.9295731659461015,0.0,0.0,0.0,fall_slump
10005,1,-0.12527539006464053,0.31830252634489276,-0.038538695354334455,-0.014225200839692403,0.09440461712703825,0.004709221632805993,1.4313257274133875,-0.39699684787237016,-0.26457916997203557,0.0,0.0,0.0,fall_slump
10005,2,-0.027754925766246087,0.03189938491549385,-0.3472991030944837,0.10279622981165383,0.16715834404520352,0.15180065221197142,-0.48219273815651975,1.4539532588848352,-1.139955256000107,0.0,0.0,0.0,fall_slump
10005,3,0.02401030369648103,-0.07015103974987796,0.08037794031219812,0.09142989396246852,0.08336630128562492,-0.12102790952316192,-0.4355771945046509,0.24142992120928675,1.3026582641720144,0.0,0.0,0.0,fall_slump
10005,4,-0.01937366288581378,-0.06485655651637698,0.24001945466996139,-0.07721626623975221,-0.057945527810891025,-0.10063386293064744,0.005577064435309767,-0.3604480403587922,-0.13417295329200413,0.0,0.0,0.0,fall_slump
10005,5,0.24080517779998198,-0.05227050913010481,0.12391260219648273,0.15787889186291124,-0.0038844430859150195,0.1740738404519694,1.3456643752899855,1.329543879027051,-0.27467204210436214,0.0,0.0,0.0,fall_slump
10005,6,-0.14213723124536237,0.24828605467343715,-0.007575367191116735,-0.015675226775079407,-0.12403800668117201,-0.047960561899973254,0.6422222957880821,0.20577535513618905,1.823957058357117,0.0,0.0,0.0,fall_slump
10005,7,0.21928925622986642,-0.06179688756754777,-0.21294972315292368,-0.058019554365518866,-0.046962451622944365,-0.0057228972889993845,2.0918410741611626,0.338763276782977,0.24341459547386576,0.0,0.0,0.0,fall_slump
10005,8,0.10560532931020626,0.21912070090548574,-0.47305963764393333,0.10482380010937223,0.07803371841790796,-0.15318312345923793,-0.9071317708725881,-0.3043314093044597,0.6419292437473906,0.0,0.0,0.0,fall_slump
10005,9,0.44130600920837915,-0.06474151571671387,-0.17352441909263694,0.07258846161605599,-0.08897168267552658,0.02547864670914344,-0.13505792886641751,0.15662255840336872,-0.6797085639551665,0.0,0.0,0.0,fall_slump
10005,10,-0.24132142224226868,0.133881770577932,-0.1419756331977683,-0.13563768663001316,0.1074073437550464,0.043793166336452236,0.44273775018579653,-0.9950270744438067,-0.5163384620059557,0.0,0.0,0.0,fall_slump
10005,11,-0.011002048043175686,0.04780857242686927,0.14434722574807363,0.06595500947783844,0.2344436024535687,0.11825026139624786,-0.7108577906886443,1.7940694284630148,0.7090672109244778,0.0,0.0,0.0,fall_slump
10005,12,-0.2040506956938666,0.14891373770646815,-0.13591607989709992,0.03397219049045552,-0.06765239983533268,-0.06664277475041881,-0.7134725280952792,0.8056052131265197,-0.2726204224795739,0.0,0.0,0.0,fall_slump
10005,13,-0.1697618903129458,-0.07422063542039367,-0.015959987223300023,-0.04975749318169946,-0.06425267334163491,0.07157541200979715,-0.44209841024396623,0.8032488731947063,-0.4619070526754008,0.0,0.0,0.0,fall_slump
10005,14,0.45283545783031653,0.23275071466899172,-0.5224083307035611,-0.015619089401954271,0.09068684098432296,0.03490469536957351,-0.4036268837652327,-1.1817471341356651,0.31980462735943194,0.0,0.0,0.0,fall_slump
10005,15,0.10252727017808067,-0.3381622304678313,0.029194822154975736,0.20164026456344208,0.024539541955809794,0.05877706543929112,-0.7199802464971087,-1.0585422337326393,-0.25091192645376403,0.0,0.0,0.0,fall_slump
10005,16,0.04326304342138962,-0.4255400124375091,0.19926474812179906,-0.030315884943044144,0.1205357258568962,0.07197625534244065,1.1621376488215711,-0.9549461316046901,0.5709276800044648,0.0,0.0,0.0,fall_slump
10005,17,0.02979950759146112,0.5024979826391607,-0.05642347493968773,-0.16869939179257884,-0.15831314017717274,0.14984089369324735,0.9514671248025558,-0.6773194926366747,-0.4736052254380203,0.0,0.0,0.0,fall_slump
10005,18,-0.30314615351551494,-0.03352407814638508,-0.1155199031872174,0.01255117477526287,-0.11499592097738345,0.0744067813498476,0.3176207305491307,0.6763617254286294,0.057555456084013065,0.0,0.0,0.0,fall_slump
10005,19,4.206026888030088,5.444027944332721,4.30256501481842,1.9824745828455193,2.2360785766058484,2.545846433465093,-0.4534989297856183,-0.6703496487849812,-1.135661090632271,1.0,1.0,1.0,fall_slump
10005,20,5.419066934742608,4.768712711572076,4.2270621900485965,2.240281518747596,2.342146457055618,1.8160475713055833,-1.77980604141258,0.4810826231509484,-1.1827911802265763,1.0,1.0,1.0,fall_slump
10005,21,3.9899889741297545,5.460454551718139,5.056083202111354,1.2388320485485556,2.5481937280441147,2.697029342056279,-1.4285307874599,1.255954660212746,-1.1941783268731978,1.0,1.0,1.0,fall_slump
10005,22,0.1597560984745822,0.16494686335427164,-0.24066756477452161,-0.2477754808193424,-0.06915957746604098,-0.06883526833660429,0.0853270844242309,0.042780653776555336,0.9159965527253207,1.0,1.0,1.0,fall_slump
10005,23,0.10869847617227271,0.02783954203551953,-0.032805984426262286,-0.12570031721489552,0.10564574886995125,0.03175671400512825,-0.38299925675729773,0.9925493464946225,0.045334688335331455,1.0,1.0,1.0,fall_slump
10005,24,-0.19225820560303603,0.39531705401487266,0.029943610512427395,0.04170775551345611,-0.009232573051043011,0.017115815445470257,-2.086902391564004,-0.8402327460483868,0.07692774736078135,1.0,0.0,1.0,fall_slump
10005,25,0.11510364925911376,0.23068366146177116,-0.08252088014350645,0.2941250319386489,0.06717922229893425,0.19170110205627927,0.5223241957002757,-0.04571102288929109,-0.6182555471806193,1.0,0.0,1.0,fall_slump
10005,26,-0.12227648655909007,-0.23622576580150095,-0.20795323720417774,0.15213552726548532,0.060597441336620594,-0.12189569053169154,-0.5805683308972042,-0.05965681441544804,1.939166966026495,1.0,0.0,1.0,fall_slump
10005,27,-0.02031605096865595,-0.5128884087695841,-0.007228100987190667,-0.21373106623077215,0.035547296398622356,-0.09622016712674307,-0.07459378595404093,1.4401439741169573,-0.5674383055266122,1.0,0.0,1.0,fall_slump
10005,28,0.2596953961276764,0.015772107700913203,-0.28567865659208513,0.09643576172018739,-0.045016893269884596,0.029202277083629227,0.0661442275359101,0.18509838329326006,0.07293872083562429,1.0,0.0,1.0,fall_slump
10005,29,0.14542598385395974,0.15399381569468024,-0.2593221560070731,0.10304822711604864,-0.0023919249101645966,0.042578518980009736,-1.0964853675114077,0.33240430959745587,0.15227954017632844,1.0,0.0,1.0,fall_slump
10005,30,-0.05842241924862071,0.3599617178881852,0.11234780624817661,-0.062297570584406284,-0.08780363120829057,-0.024746911167426732,0.26688486289324254,-0.6285822746782577,0.47898277683557205,1.0,0.0,1.0,fall_slump
10005,31,0.11592998477029218,-0.41234340757585514,-0.2404364421858122,-0.03298255243728337,0.09900629773413147,0.03915051928877649,-2.0123015589395767,-1.1747215878554786,-0.9846608885717257,1.0,0.0,1.0,fall_slump
10005,32,0.024538442037177238,0.3825656206415967,-0.32459788865872363,0.1319114565781676,-0.12741443227014754,0.03682446898522942,-1.2387620062578606,0.36011667758435506,1.9112930048043277,1.0,0.0,1.0,fall_slump
10005,33,-0.22987375308170963,-0.020527197446959185,-0.10574377802592476,0.1233875701917235,0.01074241318739749,0.04370438316983669,-0.04760354476842696,1.9755972902427086,0.28966340691280623,1.0,0.0,1.0,fall_slump
10005,34,-0.3052656417051186,-0.14802172956044973,-0.2673622195708461,0.10907107128091488,0.11703033033051083,-0.0004271582331068918,2.101060304971267,2.1282422560012284,0.5775807317470364,1.0,0.0,1.0,fall_slump
10005,35,-0.09652829321032322,-0.12938419162909745,0.31946239025909884,0.08731372483388933,0.07895622495975523,0.18460104901884045,-0.14893793525290758,-1.9004692435344268,-0.9937713245190218,1.0,0.0,1.0,fall_slump
10005,36,0.23157183574013593,0.12477087296023072,0.04206035398192927,0.012601152804582932,0.02531145015116088,0.03367536139832629,-0.1616217118309984,-1.2577001193693123,0.9734968051410139,1.0,0.0,1.0,fall_slump
10005,37,-0.33071886464362843,0.2882477839552858,0.18538752685271828,-0.0018871283809027278,-0.06242322167249666,-0.2670354592302175,0.10539874250864208,1.2315655969657957,-0.05891651219961747,1.0,0.0,1.0,fall_slump
10005,38,-0.014284137025271565,-0.0714187372439434,-0.10108538802429497,0.03333498059323179,0.1266422545803441,0.03402402797374472,0.024347044185328334,-0.03195187456916618,0.20541609598808874,1.0,0.0,1.0,fall_slump
10005,39,0.07659920825747683,0.1814653447571707,-0.07793530936747482,-0.0214147315384198,0.2580573206243235,0.12218132006117796,0.8088841638633367,-0.65759276042645,2.1456077173577155,1.0,0.0,1.0,fall_slump
10005,40,0.4523538891638123,-0.12150739600139379,-0.08605835610505248,0.11336890830776407,-0.022062465339827766,-0.006119449523962036,-1.0916843865429677,0.15878569957907065,-0.7649581876991274,1.0,0.0,1.0,fall_slump
10005,41,-0.28403107216400986,0.08744416777189631,0.5073580054597688,0.041555440055855535,0.09189290551800783,0.04277698002144082,0.025768651146269143,-0.5818179554598804,-0.15167202986079303,1.0,0.0,1.0,fall_slump
10005,42,-0.16852209920339176,0.2220058470619261,-0.0672892768127075,0.22257799176652635,0.13722449188496477,0.10813630673974026,-1.0544364435586024,0.771387204675642,-0.45457942623171316,1.0,0.0,1.0,fall_slump
10005,43,0.23886774660429733,0.11862637529074072,0.21060009167178892,-0.0219289718527338,0.033993775082861326,0.00640692913721028,-0.5450271156463344,0.7856957964877638,-1.8460021601164296,1.0,0.0,1.0,fall_slump
10005,44,-0.013738908215243123,-0.4373946294328906,-0.04210085489708219,-0.05090658040393636,0.05765662401351804,-0.06326003201662433,1.57021423656471,-0.7682914842802213,-0.5171431791663706,1.0,0.0,1.0,fall_slump
10005,45,-0.22984482628391006,0.03725688035576351,-0.2548591107030933,0.024533471931613593,-0.07159486116589592,-0.0630389264744152,-0.8299566902756659,-0.733898878623577,-0.267972714364868,1.0,0.0,1.0,fall_slump
10005,46,-0.20851441041445726,0.29419533525990527,0.5248553410546491,-0.10717629869242225,-0.013339591063715538,0.005961076956335312,-0.3709675824482481,-0.7298761200605143,0.7520857925777641,1.0,0.0,1.0,fall_slump
10005,47,-0.15966337114830442,-0.04879926862629293,0.05614039682827314,-0.10349855126260236,0.057757408165536143,-0.02807731194747657,-0.7972193412707802,-0.6473378528906841,0.44889725978444966,1.0,0.0,1.0,fall_slump
10005,48,-0.31542711493034387,-0.15089840614126782,-0.221285966919681,-0.10811054390707267,0.05385733056353807,-0.1783594127144163,-2.734603823312111,0.6274260281149784,0.798339076912663,1.0,0.0,1.0,fall_slump
10005,49,-0.37384283307242905,0.2252481156644112,0.15790946263446148,0.014760895524190618,0.18626377774189737,0.05569015651351367,0.48998994574574606,2.584231264995665,-0.15990772435013756,1.0,0.0,1.0,fall_slump
10006,0,0.26104110811061404,-0.006574065979518484,0.33813052557626555,-0.14426031550913204,0.16489190867288678,0.07264274331281875,-0.5391349483135218,-0.2904951338297917,0.34847235658780445,0.0,0.0,0.0,fall_slump
10006,1,-0.08181066716169189,-0.027148256727409906,-0.02044398995673539,-0.008826292740201233,-0.22344701748720422,-0.08550705610236893,-1.1037899828660576,0.6160980246389374,0.5990102002392343,0.0,0.0,0.0,fall_slump
10006,2,-0.003536522685415912,0.18235342321942205,-0.26556994441804144,0.06198845486021337,0.09314151356693659,0.1397296739804774,-1.794498502450506,-0.44127865807415756,-0.9266163044701278,0.0,0.0,0.0,fall_slump
10006,3,-0.1400355992354723,-0.21634432145717136,-0.17168967940704347,-0.09221737210023453,-0.06883847269207921,0.09096001975281386,-0.5718139555409821,-0.38579789371458534,-0.8118291284979532,0.0,0.0,0.0,fall_slump
10006,4,0.3576652049438859,0.04781350910013929,-0.39073859744590184,0.0779078147456775,0.01567535662794785,-0.03100681015407606,-0.9380571363887121,-1.0185875949972438,-0.10283976298840272,0.0,0.0,0.0,fall_slump
10006,5,0.204236960719696,0.3773783092286105,0.09427357991735799,-0.34743675642853616,-0.1627173462112966,-0.30865362949059766,-1.7286292017751823,0.24032417046686985,-0.3418769654026132,0.0,0.0,0.0,fall_slump
10006,6,0.2853157897373105,0.03224804434888151,-0.04282810198762955,-0.15622507196923013,0.13663071827516662,0.10476695007848082,-1.6947199069107637,0.12374392660536707,2.119962380082972,0.0,0.0,0.0,fall_slump
10006,7,0.0018360829525933577,-0.011846980589246554,0.27468182939108843,-0.049009926500356044,-0.0180265029862307,0.00030646848882055766,1.6473049144227914,-0.210231097260857,0.07537915421264493,0.0,0.0,0.0,fall_slump
10006,8,0.09440146080666076,0.06856324084441655,-0.2885542822331078,-0.151597261206786,-0.011539178322008375,-0.01905975184371029,-0.37718701388302234,0.17669796431679846,-0.09095422553056386,0.0,0.0,0.0,fall_slump
10006,9,0.32253309854755263,-0.09614035415340208,-0.26947519933586955,0.09530048652796332,0.13978736724784613,0.28718875626600515,0.85339925557314,-1.3703612275644377,1.457927593299607,0.0,0.0,0.0,fall_slump
10006,10,0.6133616983748662,0.25636986802217515,-0.06702567895373741,-0.16893217992724716,0.018378898751637122,-0.03169715238940568,-0.9901405296603789,-0.08490800398315632,1.652147028078223,1.0,1.0,1.0,fall_slump
10006,11,6.783194282372027,6.356318447133659,5.786060942581278,2.1107235034014526,2.1186937510981974,2.811427876263185,-0.5870990162773001,-0.25806608931296865,0.621880679676955,1.0,1.0,1.0,fall_slump
10006,12,7.619623469557575,6.401119678494037,5.920701184329545,2.0899207448781545,2.765839120704309,2.9819019530773105,0.6384892784862569,-0.6375408620645338,-0.44070222863147596,1.0,1.0,1.0,fall_slump
10006,13,4.1941244507900866,6.660241970772405,3.719842737985715,0.8771483937116198,2.5060888804083503,2.298276955513184,-1.4396196153822411,-0.3888242545387778,0.15501955925339278,1.0,1.0,1.0,fall_slump
10006,14,0.6002133197669571,-0.25682145305947546,-0.33280996537500473,-0.18900059838567404,-0.10365090439879038,0.07032161439905105,-0.4408620314506775,-0.8776710527894853,-1.1732560572596225,1.0,1.0,1.0,fall_slump
10006,15,0.11355295575204388,0.08161131669011817,-0.5523411603050972,-0.07346953739214987,0.13804521169584133,0.05395467491320668,0.13446499014260016,0.345357895587128,0.5832840069648242,1.0,0.0,1.0,fall_slump
10006,16,-0.21379120146423589,-0.2364304135485939,-0.2927574701467264,-0.15515430310281367,0.032673365307641575,0.06902608160916893,-1.5947924803935454,0.7932625129868287,-0.6161921136590293,1.0,0.0,1.0,fall_slump
10006,17,-0.07022857683637569,-0.1117120433197066,0.05903440346711976,0.03780939357482468,-0.07224320360493312,-0.17713530078707537,0.6164120801777653,1.8184608889663543,0.4320344822362652,1.0,0.0,1.0,fall_slump
10006,18,-0.13653849583317668,-0.033259873034745584,0.14125431091629925,-0.1603000072177809,0.1013827558454066,-0.08455937035238136,1.085395047267122,0.1611901668369652,0.1616135994209492,1.0,0.0,1.0,fall_slump
10006,19,-0.054852905376462854,-0.24687692269203945,0.07080225090843588,-0.11096566168227368,-0.06814283104729799,0.10043364097449675,-0.17652256325835974,-1.0696292983187412,-0.04134126258201375,1.0,0.0,1.0,fall_slump
10006,20,0.006972150695482376,0.12501534282102983,-0.0504871638042421,0.002104473009015345,-0.026260355726690183,0.2025646192789762,-1.7687581381637885,-1.5988654657755592,1.3840699170294901,1.0,0.0,1.0,fall_slump
10006,21,0.06658021029154969,-0.0033570592419663887,0.11894156446847072,0.07671135671494793,0.035357938999383845,-0.04444044443299407,-0.9546064200857857,1.0743813897011945,0.5914265137994485,1.0,0.0,1.0,fall_slump
10006,22,0.10648635273555222,-0.07083272027380727,-0.01936550042658377,0.022420611369904864,-0.05095423005034709,0.10084409687417868,-0.34504577006191844,2.050855001777653,-1.536173046618791,1.0,0.0,1.0,fall_slump
10006,23,-0.31790446225524815,-0.3151795749016485,-0.11415751292196381,-0.01916251308700479,-0.06154467653460717,0.07819845886524633,-0.06685076152240238,-1.339754265162638,-0.9071336793579683,1.0,0.0,1.0,fall_slump
10006,24,-0.6092293632463361,-0.00967583920272544,0.03115942840467218,0.021239601324400226,0.040724731376576936,-0.1735608412408497,-0.8329180375756263,-0.4603210184816372,-0.24061827449246942,1.0,0.0,1.0,fall_slump
10006,25,-0.009343529408507,0.057083238174216074,0.01634280096811344,-0.08079783593330961,-0.02935054807486387,-0.14060414585901593,-1.2837480240360206,0.6284250902095192,-0.15027580161567033,1.0,0.0,1.0,fall_slump
10006,26,-0.07204939699944227,0.1173588256382125,-0.11281213024840965,-0.057885384123102124,0.012473094684344412,0.13723972377684268,-0.3002775035285385,-0.2662625727301409,0.6645087709413419,1.0,0.0,1.0,fall_slump
10006,27,0.0686044488394909,-0.1788607148336766,0.3567163997506424,0.04862364871202618,0.027877544379313102,-0.03960446612244036,0.387743943674738,-1.448490740709092,0.11952536129798302,1.0,0.0,1.0,fall_slump
10006,28,-0.3782322661247454,-0.5555895264664986,-0.056603243957148545,0.028886145211372963,-0.03936407332979928,-0.03433830965999607,-0.31240672065573716,-0.8718568354086258,1.332249726635266,1.0,0.0,1.0,fall_slump
10006,29,-0.1475072108239767,-0.13427706189754315,-0.0023847330013379575,-0.12872603917904404,-0.05582936804567942,0.03716110178157368,-1.288308918821469,-1.896819165763014,-0.985130005432274,1.0,0.0,1.0,fall_slump
10006,30,-0.002826137874686033,0.02296873891747499,-0.028409715060373777,0.09789173479353361,-0.0028927064167398667,0.17810031491780062,-0.6496108142879022,-0.9400612310426277,-0.15282304037771477,1.0,0.0,1.0,fall_slump
10006,31,0.1558516409037529,-0.024657315702187828,-0.062206159254635685,0.07162959937409011,-0.08309195237697836,-0.05390317516238717,0.8190319969539318,-1.2409664375534193,-1.8538798780347203,1.0,0.0,1.0,fall_slump
10006,32,0.32142324655421517,0.0400580886288852,0.08444634530231311,0.026269519689815224,0.08375987890522314,0.21259517195830943,-0.9871021937718732,0.42944123660356437,-1.0209506334447815,1.0,0.0,1.0,fall_slump
10006,33,0.18608314178118116,0.16117214913834627,-0.02217518374853884,0.038325778691049694,0.027306701330102642,-0.06310630428971059,-0.28898329453353433,0.1437181209802371,-0.1017282775307086,1.0,0.0,1.0,fall_slump
10006,34,0.07377079030706044,-0.18964688029345933,-0.27723177130261895,-0.08283504379752221,0.11666077441589523,0.1831258197536219,0.4576602774901172,-0.40545514067309363,0.15771546008666157,1.0,0.0,1.0,fall_slump
10006,35,-0.4790918466462639,0.16894023931690488,-0.014508741271896773,0.11104113702663741,0.1302879580408135,-0.07491412038816325,-1.5574914220814422,-0.6358186363302767,-1.9823138501890967,1.0,0.0,1.0,fall_slump
10006,36,-0.07403346620795907,0.11208943580660327,-0.16799807276314135,0.028036450836759794,0.0493064415882128,0.1868863162006271,0.772505783845858,-0.119083459394203,-0.11362037322949387,1.0,0.0,1.0,fall_slump
10006,37,-0.061996717412281056,-0.022418099505830062,0.4146626094452036,0.15861974607194868,0.1323250484983904,0.009372583093269962,0.4347445727072406,1.2249797513891356,1.2287073556416248,1.0,0.0,1.0,fall_slump
10006,38,-0.0715888209038884,0.047475393356857305,0.37308768159948463,0.15130312725953216,-0.07134832749613651,0.1420594886381646,1.2469161015703756,-0.45376543375891404,0.06585084259518183,1.0,0.0,1.0,fall_slump
10006,39,0.3777826021029432,0.11557654285205637,0.23054542729057315,-0.05282422137179499,0.06912472126804946,-0.0969631069462527,1.1186512006520255,-1.02948893581224,-0.7351399767099176,1.0,0.0,1.0,fall_slump
10006,40,0.3362107955017438,0.2898304354609743,-0.10487849234336452,0.11961260467890139,-0.025030964288879673,-0.006113230514024626,-0.5901564041908024,0.4438623241800067,-1.1391307969807745,1.0,0.0,1.0,fall_slump
10006,41,0.02270245277516572,0.020015810602221604,0.12477379371888388,-0.1521693251124161,-0.03613139598048541,-0.08065343796050346,-0.22354208013514018,-1.349476965470248,-0.734282893138237,1.0,0.0,1.0,fall_slump
10006,42,-0.21597652890880945,0.25420209262940263,-0.17159327040216538,0.2229830855805458,0.0226164380048976,-0.033238790347478425,0.8169649500138849,0.09917197371898456,0.38013375881895134,1.0,0.0,1.0,fall_slump
10006,43,-0.25682786250591266,0.0010805523065127304,0.023994968785522153,-0.005904109064823818,-0.13634339256142447,0.040022664640575176,-0.25946604315100974,-1.976993918998971,-0.8372838516914523,1.0,0.0,1.0,fall_slump
10006,44,0.2329821989944455,0.13503070136403333,0.11356501101326841,-0.003571988990048014,0.12528629259744667,-0.0987591973031095,0.8313284852243334,-2.5376519084280598,0.04928900706623379,1.0,0.0,1.0,fall_slump
10006,45,-0.2803862659709041,-0.1918514251043163,-0.21574254096229234,-0.04633468907818284,-0.158727892571132,0.09627824397854012,-1.5178201838354095,2.209493147887398,0.44343249893103465,1.0,0.0,1.0,fall_slump
10006,46,0.46345191165918703,0.051402557593583476,-0.2520835774097912,-0.1356906120106495,-0.01484676696012727,0.019632948762122578,1.7525776209543347,0.10922650153767058,-0.5601313039672327,1.0,0.0,1.0,fall_slump
10006,47,0.26787827233335076,-0.27476370743371564,-0.1654920266778156,0.04753713269700835,0.07713412719321086,0.025308468511340377,0.5984343817106138,0.40890554226390036,-0.39524183196682694,1.0,0.0,1.0,fall_slump
10006,48,0.31639862779724687,-0.37793464371439717,0.0037499582370360135,0.06871336301541879,-0.03023779255179115,-0.031554700574697336,-0.007846558622120428,-0.5882764805792098,2.3105987937473444,1.0,0.0,1.0,fall_slump
10006,49,0.12693149132919085,-0.13968711934586353,0.048787675403729046,0.11676432774947113,0.06084696389271435,-0.09609354161414567,-0.739918041253394,-0.5192442543357947,-0.1887052313637041,1.0,0.0,1.0,fall_slump
10007,0,0.2914521920319688,-0.3378301283341389,0.0017304909022844853,0.006606956746223986,-0.11618995493753441,0.05339325084624516,-1.3469208136080282,-1.1143326489605776,0.3174681704510481,0.0,1.0,1.0,walk
10007,1,0.1817835789103932,0.17617193104559162,0.060467589369187516,0.025487237072109457,-0.0022765974451169654,-0.10685584467823549,-1.5582892572666602,-0.1037533004381016,-0.6921478170336833,0.0,0.0,0.0,walk
10007,2,-0.1078368229646611,0.4674898296291946,0.46700476046637185,0.034759662775630536,0.014352919415008075,0.17478909413041538,0.4989292269341263,-0.9199442049272192,0.8982370297346995,0.0,0.0,0.0,walk
10007,3,0.05367622648431185,0.1751254611071017,0.5330214462922311,0.17511759354414222,-0.06569772928271397,0.23201872488641856,0.643350289989782,0.144971930829338,-2.008411669569997,0.0,1.0,0.0,walk
10007,4,0.43441263999201435,-0.05720061089977291,0.4027270478557101,-0.07304249168522195,-0.19679433594554938,-0.10140519055789124,-0.3018048242320624,-1.4866122908483301,1.2025541079753395,0.0,1.0,0.0,walk
10007,5,0.5163360967878059,0.6294491967112702,0.7410006598678047,0.023619218181895888,0.006423931319993642,0.06467753592154657,-0.22539161875145566,-0.6413432054268328,-0.007190731056684991,0.0,0.0,1.0,walk
10007,6,0.1954672075416034,0.2566984417484327,0.4870242130277368,0.1637799829981159,-0.06114163957977995,0.025342433689926145,0.6916816966803807,0.9151999399065911,0.32574168013088184,1.0,1.0,0.0,walk
10007,7,0.6608724208313164,0.21122699500110362,0.47399535322386743,-0.10662314112308814,-0.09427117793190953,-0.16219673867970033,0.28723305195674215,-0.12027066649521188,-0.8313828347963242,0.0,1.0,0.0,walk
10007,8,0.3054559552583074,0.18691759247779052,0.3634762490267933,-0.04650945754719451,0.05525460546539464,-0.03540020662105592,-0.3526311297918182,-0.145421606644737,-0.427678086880975,0.0,1.0,0.0,walk
10007,9,0.539658378759965,0.75,0.3487159167658668,0.23106657300383204,-0.2084403345391313,-0.11217629691641462,0.08553527216138523,-0.29149997678658884,0.483180360553971,0.0,0.0,0.0,walk
10007,10,0.12038215264408664,0.2686084533740536,0.528471131724895,0.13832746873460638,0.10550976677923884,0.10073008187685017,-0.11836896717375654,0.2576724980640159,-1.2514122073624157,0.0,1.0,0.0,walk
10007,11,0.75,0.44038380813488426,0.3575065061183744,-0.024958864443227625,-0.04883435532588351,-0.06355834044140855,1.3659337497465678,-0.8260942784327563,1.2803409522431264,0.0,1.0,0.0,walk
10007,12,0.5071398335268408,0.6990022400319637,0.22252421898360986,-0.058237461730567125,0.07335892174485914,0.02153641598313255,1.112479404229878,0.06249621866546196,0.6401905308131091,1.0,1.0,0.0,walk
10007,13,0.24399410162262467,0.42881951225914006,0.6450068625103647,0.07683204137857627,0.06238134427888023,0.014961694019225539,-0.39941305886870404,0.0023328108465713376,0.9827434557972999,0.0,1.0,0.0,walk
10007,14,0.061688553267383345,0.3350535029558307,-0.18078669138449902,-0.15785551202930112,0.10644811201641438,-0.09566957563346451,-1.3995031120384178,0.12282804437360742,-1.1893277404871299,0.0,1.0,0.0,walk
10007,15,0.4392636666140612,0.34465201606945495,-0.18460651906922812,0.21671037332188575,0.007010931912238717,-0.018994317811278034,-0.4269432728275592,-0.026648618179089735,0.6388166879594441,0.0,1.0,0.0,walk
10007,16,-0.16642205258099987,0.18315958627303697,-0.10307852013287544,0.019280068292185225,-0.01434698052029939,-0.06180222310111021,0.08918871632947908,-0.02824429599122483,-0.45396146033582646,0.0,1.0,0.0,walk
10007,17,0.2140303930526606,-0.133394756549644,-0.4787801015938762,0.07751039462063566,0.17830638938114665,0.10590549548485495,1.1099726183390621,0.28100700863329786,-0.28332465346133395,0.0,1.0,0.0,walk
10007,18,0.00786923030635148,-0.4647538397159165,-0.31873304795931134,-0.028135015924234272,0.009624996509451703,-0.049543186522196025,-0.7045127069957527,0.4690430626121334,-0.7559543025339338,0.0,1.0,0.0,walk
10007,19,-0.5112323226360318,-0.2537305773929366,-0.3831937510015027,-0.13260835839617072,-0.1743015508831517,-0.12970085268169318,-1.4003294535913318,-0.1493269707232442,-2.657995756888787,0.0,0.0,0.0,walk
10007,20,-0.4874443949020326,-0.06301040891047735,-0.18379228114901527,0.08233184590312925,0.04948451852991762,-0.1055440141814366,0.22962297291217443,-1.0665279344334893,0.2775403997875259,0.0,1.0,0.0,walk
10007,21,0.019772755571774096,-0.4092554758695439,-0.49802642184408663,0.08152815922108562,-0.20967066196557224,0.049360653824414506,-1.6330913623002064,1.9456907389448994,1.1428512074591328,0.0,0.0,1.0,walk
10007,22,-0.38405040117710953,-0.6247047883663263,-0.6836813291681808,-0.008972391019172233,0.12673983926741386,-0.05482658336175172,-0.5176117638844385,1.3760882979493771,0.375231990175461,0.0,1.0,0.0,walk
10007,23,-0.5185746462300854,-0.7255764428411818,-0.2941190829440911,-0.04883750588455331,0.0788775129841196,-0.1868935063236955,0.034024019128872846,-0.0925936698559874,0.9855503757083065,0.0,1.0,0.0,walk
10007,24,-0.4458209888483338,-0.5611231844250919,-0.5000685423829889,0.022534372529478725,0.1219638525957181,0.07423069380962305,-0.6672781990534318,1.1474063561999062,0.3069783309922319,0.0,0.0,1.0,walk
10007,25,-0.5738594735180429,-0.49451127535238726,-0.4304258396600403,0.027100901759270282,-0.008325969989649459,0.09798613283371714,-0.5392850708065506,0.2587048328262944,-1.7291566255031414,0.0,1.0,0.0,walk
10007,26,-0.5124973631263112,-0.37309518993271856,-0.6110275983318343,0.062167086118624953,-0.05105364223879556,-0.030599711451080196,-0.7481143925836599,-0.8527457158491069,0.7414807916962474,0.0,1.0,0.0,walk
10007,27,-0.26270784491930715,-0.39246804930698603,-0.7,0.04900301262818601,0.0018444579486641514,0.08033479969407001,0.7133701419906859,1.8616703677969428,-1.2732947639427417,0.0,0.0,1.0,walk
10007,28,-0.4373830620595961,-0.1951654946958357,-0.6553636476856555,-0.06322580766658362,-0.014291033529080841,0.09125556135474955,-0.4840648644674382,0.013990225611252627,-1.2075629448406322,0.0,0.0,0.0,walk
10007,29,-0.34291273282807255,-0.33846843701096924,-0.3650856866532313,-0.131013933091765,0.2010786237288397,0.005776324988113896,0.7629118605313614,1.2042505833282002,0.2704190756127644,0.0,1.0,0.0,walk
10007,30,-0.1919644610268263,0.17285194742621265,-0.32088020363789876,-0.1729548722578431,0.0725807884401052,0.03887266217883971,0.7180305546881225,0.30595913953025644,-0.7944012656168615,0.0,0.0,1.0,walk
10007,31,0.00992909530364049,-0.23681658113919132,-0.03452863830701992,-0.050054387501318784,-0.24369508496283998,-0.025450907897839513,-0.13514556188935228,-1.3367049520149274,2.7230600690965594,0.0,1.0,0.0,walk
10007,32,-0.28729046873237507,-0.12551767880051717,-0.3657858011838451,-0.05777866018554498,0.0988624444756703,-0.3423813231364886,0.05814862739042907,-0.37791488434392123,1.8787344615132346,0.0,0.0,1.0,walk
10007,33,-0.03294520935753987,0.15266869036749067,-0.04888864194882495,-0.21718073741103996,-0.02172164584283018,0.08633008951794642,0.4561957465174807,-1.6308945794667655,-1.338661476652546,0.0,0.0,0.0,walk
10007,34,-0.20213182002111044,0.10231978758036726,-0.13409054580696786,0.05004357827161835,-0.013913802733227773,0.14763832027922838,-0.6953567806810721,0.6393833465335406,-1.3284871565405203,0.0,0.0,0.0,walk
10007,35,0.3307279083577287,0.631427500532307,0.2562294847761015,0.0982514256646857,-0.013973564288007632,0.08034910537160839,-0.5998662807111638,-0.4993044523186138,-1.1197917452437622,0.0,0.0,1.0,walk
10007,36,0.3234620383551067,0.4481762677099607,0.19601632047167622,-0.06929860040782637,-0.14170467999563816,0.030785004609364664,1.2818301673040386,-1.1800817834866744,1.6228387963986002,0.0,1.0,0.0,walk
10007,37,0.619318205609231,0.43634152346808086,0.41299664583867085,-0.08309406151368598,-0.14081692067440224,0.09426994919481234,0.5431821671554934,0.5783947151867608,-0.058343574981863905,0.0,0.0,1.0,walk
10007,38,0.1680495612712305,0.5545863510930564,0.5501546417228576,-0.03377612900250752,0.03736950667760508,-0.02516606045606519,1.0945108255446854,1.0705310543549966,0.14857959550156444,0.0,1.0,1.0,walk
10007,39,0.6657043223029048,0.621203287981529,0.22801214990233207,0.14523712164341984,-0.1739921016372665,0.00695842481117376,-0.34356301741787776,-0.6148377328304276,-0.7886089746205168,0.0,1.0,1.0,walk
10007,40,0.43538093912049336,0.3713738364504464,0.7173761564555464,0.07979500020370772,0.06380083022002034,-0.031344338737639185,2.0608900063472553,-0.5425614677639636,0.26942464304051983,0.0,0.0,0.0,walk
10007,41,0.5653598137625095,0.1979226225521971,0.23180878983807696,0.1283472763115433,-0.10415025471620915,0.17527334335104172,-1.1589124607334758,-0.03244769712167167,-0.4407705147699526,0.0,1.0,0.0,walk
10007,42,0.2840759825517194,0.75,0.16164853190240483,-0.09990373797784043,0.14858637031893449,0.1493988691067781,1.4668409938864972,-1.8880445378900885,-0.8990402743454098,0.0,1.0,0.0,walk
10007,43,0.5300096017388473,0.3817596489268992,0.3079239767234713,-0.014574728332423455,-0.038149911264929746,-0.2761031664339864,-2.076229750585896,-0.0346314445775332,0.6621775777914446,0.0,0.0,0.0,walk
10007,44,0.21561367279512986,0.5151762830201068,0.07359078968815493,-0.015523663148325404,-0.045659139761132846,0.1147404644403763,1.378936232326278,-1.3902646773047223,-2.156128632908946,0.0,0.0,1.0,walk
10007,45,0.4917303391966964,0.311632048779104,0.06790938601867705,0.03711495535760648,0.047080467487119214,-0.09647637817253696,-0.012166545729382956,0.2974874339733265,-0.06182287310619067,0.0,1.0,1.0,walk
10007,46,0.28219395588287427,0.2608692845485232,0.11444333773221209,-0.10972493445347387,0.08795803090901097,-0.05607245166788635,-0.0867657278620364,1.60887247410548,0.9367077057011071,0.0,0.0,1.0,walk
10007,47,0.02690831304946007,-0.16894885516317484,0.1560616043389915,-0.05565468728263839,0.1618122652795215,-0.01850764298414248,-0.14367925819505134,-0.9494193635095145,1.4940430802053974,0.0,0.0,0.0,walk
10007,48,0.274707098236246,-0.04724254618871077,0.09875729011311452,-0.03453179071667028,-0.015414663481628076,0.19523683972291608,2.0715438497019036,-1.029397806360205,1.0829127725324565,0.0,0.0,1.0,walk
10007,49,0.13232046794938546,-0.004621683993771199,0.1044562642098418,0.005236701857598343,-0.04149587366924438,0.15138117480957008,-1.0223992355272211,-0.21702008187901603,-1.2261378799422724,0.0,1.0,0.0,walk
10008,0,0.10286907817712475,-0.08220652000989515,-0.12912280242904647,-0.1661947743961937,-0.25414432187909397,-0.09233389936036682,-2.4926098639624334,-2.0276468072501252,0.7487945430259787,0.0,0.0,0.0,fall_slump
10008,1,-0.4238758117009378,-0.08515991782391322,-0.14895078190196373,-0.10979964808250395,0.006699457568539353,0.0637956855496833,-0.15644430565757456,-0.685327304628552,-2.549710720201269,0.0,0.0,0.0,fall_slump
10008,2,0.29792969387537327,-0.17086236138134211,0.20246231734239212,0.038113205730939695,-0.01223810833132184,-0.04267715685754585,1.8943157275316027,0.20017679133408955,-0.2864387188051495,0.0,0.0,0.0,fall_slump
10008,3,0.024419245001832856,-0.3571490757910503,0.14978309024779454,0.04548035699329444,0.05309695583200659,0.033601857481415906,-1.1921847538090165,-1.1027415887797252,-0.7673775265615885,0.0,0.0,0.0,fall_slump
10008,4,0.0249420500955726,0.13689779364236448,0.2567079912757216,0.058370511362323435,-0.06410667498161078,0.19073738388960218,-0.018341988820116208,0.2830914053612559,0.6449316488379102,0.0,0.0,0.0,fall_slump
10008,5,0.08840496182952903,-0.0736921008178604,0.007325750670951267,-0.08497810435620207,0.047947120620221495,-0.046310867244472864,0.9876353320171767,1.7106574978253286,-0.2613040169716221,0.0,0.0,0.0,fall_slump
10008,6,-0.4731066130749835,0.0745767645858067,0.0010219006875929193,-0.13033719187264048,0.21015490938435608,0.03131168728683961,-0.9458653320667854,-0.6025878144512535,0.38908680184394107,0.0,0.0,0.0,fall_slump
10008,7,-0.1509611209956828,0.17189678687444152,-0.014569519431240092,0.013419656263132754,0.021482433542317273,-0.053440061324786424,1.2045417685115087,-0.5818762885023552,1.3012569653429251,0.0,0.0,0.0,fall_slump
10008,8,-9.133537186695878e-05,-0.19337210295143747,0.20609276013435662,-0.04795088225189395,0.12549614861056216,0.02477182338961395,0.012635188868928057,-1.215443323586834,1.8881314010971857,0.0,0.0,0.0,fall_slump
10008,9,0.2107308908167672,0.3451817787433378,0.11222444430357864,0.06825038587286571,-0.08402235671806602,-0.23030725657755952,-0.24194746241705242,-1.5865939868409793,0.24851778920598547,0.0,0.0,0.0,fall_slump
10008,10,-0.1996894244119162,-0.33921917813106783,-0.02193447963038686,-0.04556210996073515,0.020741132462848144,-0.14352007550674753,0.740697116006756,-0.7632365645410445,1.2528935216490904,0.0,0.0,0.0,fall_slump
10008,11,-0.3241103160977361,-0.3578216653742784,-0.28899145190110725,-0.09069255960798075,-0.053747538837240746,0.014720966660271815,-0.6438779917227283,-0.29781266521413086,-1.4761656553969489,0.0,0.0,0.0,fall_slump
10008,12,0.18069170006007823,-0.19751675734989166,-0.20159160824333153,-0.007953952628291195,0.10279571441089619,0.02368129258464567,1.0593560526760404,0.8967891087907551,1.1372589529243,0.0,0.0,0.0,fall_slump
10008,13,-0.3399054167153531,-0.1633058929284906,-0.32041125653060293,0.043863862328422834,0.05883341696506235,0.172170024759134,-0.4492451016804513,1.4841766949973751,0.3966941179343435,0.0,0.0,0.0,fall_slump
10008,14,0.4564483420602825,0.0342017772349934,0.40693115832792376,0.07053541619107606,0.13424291526288057,0.052297973985790884,0.5160374934389512,3.2964928559031113,0.5854291305530077,0.0,0.0,0.0,fall_slump
10008,15,-0.0409724881071443,0.31936223461790003,-0.12987541909883085,0.008185441133934311,-0.02769867553257095,0.07650477143247801,0.7034443763830661,1.0439689927050613,0.6168387974829709,0.0,0.0,0.0,fall_slump
10008,16,0.05224742087226186,-0.13693910658411335,0.10502375172911528,-0.057986027150245936,0.04283816664904778,0.04798526519802719,0.43398132086104,0.4285621901808741,-0.3145426072453142,0.0,0.0,0.0,fall_slump
10008,17,0.3724646144813749,-0.32069797856161625,0.3392382948476491,-0.0665830459500019,0.03500619852791106,-0.1189828026748683,0.5900059144762889,-1.6520269759785977,0.08235829093998126,0.0,0.0,0.0,fall_slump
10008,18,0.4013751702173863,0.5244048681584127,0.09129301425777815,-0.09115181864519133,0.06309147265768364,0.05935309341555939,-1.8482618822681027,-1.1483638025673475,0.1004950605874392,0.0,0.0,0.0,fall_slump
10008,19,0.22730159907388023,0.09289335965528032,-0.2756832705810487,0.06499956749997081,-0.05415775969643405,-0.015096026554150523,-1.0243396836130185,0.6445274417101079,-1.5384159579085406,0.0,0.0,0.0,fall_slump
10008,20,-0.044450645636355694,0.224153575549711,-0.35395162150784226,-0.17947148840654498,0.013444850678230553,-0.04040630344787598,0.18354344870338196,-1.6140372458942296,2.3344502387428974,0.0,0.0,0.0,fall_slump
10008,21,-0.46491202264366643,-0.10546863649733401,-0.16386646600169733,0.004386209661871067,0.05063862273408484,-0.002054105216170908,0.10359271380695406,0.013089382025942528,-1.263437201828991,0.0,0.0,0.0,fall_slump
10008,22,-0.029361309653830818,-0.1329137865175478,0.09385226209744812,-0.26210932878037374,0.1207020905302395,-0.0365064889158777,0.5361020250205012,-0.548043301202148,0.5913951403116463,0.0,0.0,0.0,fall_slump
10008,23,0.16876367320477603,-0.3182225476565905,-0.4244299537180093,0.03271646046108777,-0.030242541137362293,-0.04905810201628968,0.13417446066182995,0.14723346480039784,0.1734314184246015,0.0,0.0,0.0,fall_slump
10008,24,0.02301450391977928,0.24092857342461904,-0.043905053850448995,-0.06111649702374931,0.0691706859652923,0.010679390523522007,0.8146911513452709,-1.1416291701906716,-0.968259158702574,0.0,0.0,0.0,fall_slump
10008,25,-0.09298499660338198,-0.11607110974140195,-0.09956770476547272,0.017227980162543247,-0.18605910518111224,0.06339291495968127,0.8327570162251073,1.0981385393063197,0.43224356537878844,0.0,0.0,0.0,fall_slump
10008,26,0.002804550672904811,-0.1915212093509995,-0.09357240238275483,-0.06877655655470324,0.04378054662943388,-0.19739294042335429,-0.47452589244733206,1.5327797942395858,0.26864331125840785,0.0,0.0,0.0,fall_slump
10008,27,-0.4591719287996995,0.03856773199706643,-0.3420634643961408,0.274695239466653,-0.04895458187932826,0.1327527652746258,-1.059726889415058,0.8602995074862582,0.40419003071541826,0.0,0.0,0.0,fall_slump
10008,28,-0.03597907794811705,0.0412173805928239,-0.3500291417524225,0.06460893221521855,-0.01150196306083276,0.0837209175575571,-0.7602791476384047,-1.3504197499511128,0.664410770996682,0.0,0.0,0.0,fall_slump
10008,29,-0.0412662462818571,0.1853038451719994,0.25990409974806195,0.058421896095690096,0.11661477822122315,-0.11953526438400011,1.0445867020900705,1.4780577122362786,-2.4955008830086536,0.0,0.0,0.0,fall_slump
10008,30,-0.3447201671078964,0.2486653936716857,0.013754360460465676,-0.1993757382749745,-0.018027885189085102,-0.14122811063604795,1.931544157409438,-1.5614989974317728,-0.6112217451946442,0.0,0.0,0.0,fall_slump
10008,31,-0.20826484522366479,-0.043617679431685305,0.05419551026911611,0.04776767777694067,-0.04091579452532736,-0.0697825377135654,-1.4389960699132796,0.20417508059637857,0.9989218416270731,0.0,0.0,0.0,fall_slump
10008,32,-0.13064327651610286,-0.5212261473608837,-0.040471817669830684,-0.020875719862380918,-0.04737372545760338,0.04010873582722746,-0.3947413387708072,-2.174736983194198,0.09688187065319703,0.0,0.0,0.0,fall_slump
10008,33,-0.025800890120789944,-0.245808941970269,0.014042780667241656,0.07948141388686684,-0.02387595036876504,0.14854881670165512,0.0602964565530908,0.2875862822892615,0.11996079438247326,0.0,0.0,0.0,fall_slump
10008,34,-0.16325388981240765,0.48195745095675946,-0.23247357532772367,0.05014602308132865,-0.12949077458476765,-0.09651462335525961,0.9160584212960854,0.012349240855115174,0.3463367883161663,0.0,0.0,0.0,fall_slump
10008,35,-0.14116427477915489,0.1602603872891078,0.23163402258766697,0.07133064987896046,0.11182385693067244,0.1261125672503544,0.09770348372630361,-0.018121027673695417,0.1556102456818773,0.0,0.0,0.0,fall_slump
10008,36,0.019337487092365102,-0.08281696354973714,-0.09957298470480136,-0.1028165577891252,-0.014635798175053859,-0.11422776105607535,0.41547142271027493,0.4267006642929974,-1.1885110920276074,0.0,0.0,0.0,fall_slump
10008,37,4.138639637751582,5.502751574239634,3.8462478466224685,1.7230590686691023,2.2525423709749854,1.6270811705223083,-0.8457825710103409,-0.7947106561753963,-0.8219559409874423,1.0,1.0,1.0,fall_slump
10008,38,6.803032361064633,3.6928908090003234,2.312627976670467,3.112675814940009,2.77057939054475,2.6307533400791163,-0.9358923306339013,0.16374524929825066,-0.964373134812651,1.0,1.0,1.0,fall_slump
10008,39,4.279172459883856,5.8098910727017605,5.6128140460407145,1.8000287932026977,2.6446247599365615,2.2893170494550086,-0.8661364140718484,1.3803648906561252,-0.5062482781161359,1.0,1.0,1.0,fall_slump
10008,40,0.24810836414663376,0.006895266807647872,0.24022856523554484,-0.04771236536626075,-0.07083305568033939,0.24865421103457083,-0.6290697882459778,0.43730012350428404,1.61513401715106,1.0,1.0,1.0,fall_slump
10008,41,-0.0770917436768304,-0.36531417755053824,0.09378009929841095,-0.16647966148912746,-0.03636346590612752,0.09673362977295485,0.11881502340576258,-0.16427941649563843,-0.806258249785851,1.0,1.0,1.0,fall_slump
10008,42,-0.16233112861099097,-0.1077318655906919,-0.009953168442917035,0.04318898811456097,-0.08041274517783377,-0.031420816348757485,-0.3049260473241332,-0.6775380035694614,-0.5760854395560545,1.0,0.0,1.0,fall_slump
10008,43,-0.28590432456631265,-0.19546106118275455,-0.2698054740498565,0.14149063355648775,-0.008866837637732291,-0.22797909778397635,0.7820533584629756,-0.5122003764849599,0.2891131567403545,1.0,0.0,1.0,fall_slump
10008,44,-0.22242349728491478,-0.0926922142550932,-0.0795486123278688,0.13094756502309463,-0.01103157138215529,0.03297450675666789,0.5644578637366711,-0.7469526064829103,-0.07157712801712805,1.0,0.0,1.0,fall_slump
10008,45,0.1133868778512995,0.1331060505584967,0.16036996547716229,0.12218293862453172,0.0015043212585922616,0.14517719417125244,-2.0647230468802973,0.8102676773986649,-0.8393628576089376,1.0,0.0,1.0,fall_slump
10008,46,-0.19944436691184295,-0.22714831595187024,-0.25268777666737985,-0.06998820833689283,0.10033133375489865,0.08340765178612596,-1.13731691327785,-0.008709446301714996,0.20149864744604173,1.0,0.0,1.0,fall_slump
10008,47,-0.2148047246990846,0.007251627903017865,0.013235112407585709,0.04742481153116605,0.021374512713456265,0.17595675852144896,0.6227300945890073,-0.6775432862861244,2.810384727835131,1.0,0.0,1.0,fall_slump
10008,48,-0.18210620891181814,-0.01908620267352562,-0.034471565435879495,0.1446314114235287,-0.01757105289058872,0.10529912049604959,-0.7818030763624577,0.4216183681185924,0.5746392734448459,1.0,0.0,1.0,fall_slump
10008,49,0.01916548332056335,-0.04354295946474809,-0.16822463060295262,0.09520075257435379,-0.02134064688731202,-0.2769209313769462,-0.6483957458819901,-0.45423136834642613,-1.3595041701418624,1.0,0.0,1.0,fall_slump
10009,0,-0.4563564213179235,-0.29919775061653303,-0.29472525879024025,-0.20495554662625715,-0.057261181865148184,-0.010202877908529103,2.3337449925007845,0.26950980487851706,-1.3249664030771038,0.0,0.0,0.0,fall_backward
10009,1,-0.24297058234738728,-0.1653672436559626,0.20562332182272647,0.0016145561343514202,0.0034134861296189634,-0.11594675396831494,-0.861697247403477,1.1892194731162662,1.2964690817265698,0.0,0.0,0.0,fall_backward
10009,2,0.30298222964092514,-0.06529748870544096,-0.11512638206377301,-0.12066356234047168,0.1301416431087844,0.029832097212592574,0.2853649140332737,0.9674895170509356,-1.135832687816119,0.0,0.0,0.0,fall_backward
10009,3,0.112762795507109,-0.12191626217278317,0.12580457826305372,0.03755257154418495,0.11874014582311047,0.04845200918457591,-0.6124876520061454,0.18913719402670148,-0.10049040219773053,0.0,0.0,0.0,fall_backward
10009,4,0.015502080642710636,0.04576557639532954,-0.4148033261002889,0.15992665289898889,0.10059763426777456,-0.09152404324046706,0.6898246258181738,1.6025216127697244,1.506848391767449,0.0,0.0,0.0,fall_backward
10009,5,0.029026681906096575,-0.1500543055131633,-0.005735070004696755,-0.09884666899731528,0.16536182048351705,-0.18672666800529664,0.694922688589114,0.6867686882484412,0.9214901295628483,0.0,0.0,0.0,fall_backward
10009,6,-0.07325102604031646,-0.30482305944359983,0.0004711413842514063,-0.0429431536208837,0.12835468831330787,0.046267235916359624,-0.4285348796659456,-1.1631368703366813,-1.003145838044144,0.0,0.0,0.0,fall_backward
10009,7,0.09087909524835194,0.03991437286428463,0.09923885989770097,-0.015754236646524325,0.014205501837247432,-0.09677377958792287,-0.8105811006882236,-0.30920048234383324,-0.12132974760484563,0.0,0.0,0.0,fall_backward
10009,8,0.1379473033037654,0.07924404254135504,-0.03470858132350834,0.04331923842490925,0.010667676213203234,0.09912734461312292,1.0444397336011422,-2.2766700162064257,-0.7229238946528694,0.0,0.0,0.0,fall_backward
10009,9,0.32683361828196356,-0.24904626146484232,0.23806752677659013,0.06589067872397951,0.09745736453202518,0.06005411624352037,0.4830474980457335,-0.876730842912262,-0.7871190052696607,0.0,0.0,0.0,fall_backward
10009,10,-0.09146415985084737,-0.14807874682779318,0.29729170966472135,0.2620212632474302,0.12440801152600608,0.05840260447467994,-0.4715594193743343,0.5096815084664164,1.2001399577704404,0.0,0.0,0.0,fall_backward
10009,11,0.05522636650629852,0.2041213639982843,-0.1448010200791141,0.11911473259812005,-0.014480056959838901,-0.018455348870515337,-1.7654237274275846,3.0211846218356384,-0.6164130744922359,0.0,0.0,0.0,fall_backward
10009,12,-0.35314349126239425,0.14305248636109258,-0.017246842793971623,-0.06552215397656595,-0.23656863003709047,0.03732278316227351,1.3052772093755127,-1.9917609265839338,-0.8017297685890876,0.0,0.0,0.0,fall_backward
10009,13,0.0732799302404542,0.0686754655925445,0.057891748588967104,0.017668661962292855,-0.06739323438251801,-0.1819024056744325,0.2628146183761182,-1.4953106717989384,1.1956077847265472,0.0,0.0,0.0,fall_backward
10009,14,-0.05719682325617423,-0.06485530316371889,0.25274098163924286,0.12117903659487245,0.2184095892401738,0.006051166286086677,0.9035475028705514,1.479444768593797,-1.1255977492864804,0.0,0.0,0.0,fall_backward
10009,15,-0.04719601150349833,0.007823311427760358,-0.17025827864401288,-0.10576515418846866,0.033558612034736666,0.03346943086887713,1.5570605021163282,-0.7505532291124468,-0.4494049706091947,0.0,0.0,0.0,fall_backward
10009,16,-0.19057979449568307,-0.2633603227749751,0.06862600328614105,-0.09502035564351118,0.05216857120338754,0.03328936779448895,-1.3816373702975757,0.3781295575310565,0.6074228169222446,0.0,0.0,0.0,fall_backward
10009,17,6.45753526680467,4.376277168430991,6.238705823009362,3.187982575939743,2.3452306331149546,2.741061147200978,-0.4435411897606118,-0.3801952136880676,0.23603476120376485,1.0,1.0,1.0,fall_backward
10009,18,5.516084705148975,6.058862922014832,6.438386139969931,1.5648117478944685,1.3093208671071166,2.7327792984327326,-2.0446206252137182,-0.9888282132669359,0.2624391859306477,1.0,1.0,1.0,fall_backward
10009,19,7.042484166810823,6.763886576959137,5.184885327967151,2.2125907680039076,1.648756791661135,1.535778019322645,0.7857072373902968,-0.7083927556189871,-0.14118492179828995,1.0,1.0,1.0,fall_backward
10009,20,-0.4438152593181938,0.18199185420247166,0.2835616695727214,0.07155436811860369,-0.014675986631820242,-0.0366570823953069,1.784167583154058,0.028594522738939948,-0.5648134982658413,1.0,1.0,1.0,fall_backward
10009,21,0.38459825051043334,0.12380238473431482,0.07355488873913012,0.237234089953517,-0.14119055499517408,0.06614498414525956,0.9152334760340025,-0.025437941207816388,-0.1997899535317939,1.0,1.0,1.0,fall_backward
10009,22,0.09315833423395486,0.11074118990052122,-0.15318465529469413,0.002408266278205111,0.0417574001328711,-0.11786495591326028,0.8226009769047042,1.136462631238329,2.2666386010579442,1.0,0.0,1.0,fall_backward
10009,23,-0.23755297782783907,0.2089478862340023,-0.059286942980454144,0.12792394979274468,0.14093080997208096,-0.0335114342107032,-1.3589355177881528,-0.324335817380883,1.0483307143814804,1.0,0.0,1.0,fall_backward
10009,24,0.16870438109346875,-0.09091077765898609,0.22909571499393894,0.05324937368115716,0.08911053070248301,-0.11873299452218834,-0.7315372617758118,-0.9319963212858018,-1.6559821349906385,1.0,0.0,1.0,fall_backward
10009,25,-0.3168090429796329,0.3210757473825413,0.2590109709120323,0.17484465229429597,-0.006493926342901767,-0.13506651930440838,-0.46315299740813115,0.2778678060026766,-0.41752222429383595,1.0,0.0,1.0,fall_backward
10009,26,-0.31042621070530524,-0.13035081190650255,-0.2092127795332387,0.06961590854979186,0.08106885598105618,-0.34835976535842994,1.3910919841022853,1.6767346004455845,-1.0216169717553194,1.0,0.0,1.0,fall_backward
10009,27,-0.1373053446650805,-0.14359348862552423,-0.20599382292376672,0.11393155901822472,-0.09725466653545792,0.060830092692670035,-0.6782197418468052,-1.4195991385899855,-0.24236130237082526,1.0,0.0,1.0,fall_backward
10009,28,0.04772884255718959,0.09825504193208194,0.3045846541432538,0.1243065707615021,0.024116703109716232,-0.017322401065066276,1.178574129696436,2.627213758020387,-1.1684328617994049,1.0,0.0,1.0,fall_backward
10009,29,-0.30488293427046465,0.17173132074219888,-0.20475726548212467,0.10785812698040186,-0.14273168423488836,0.05384098094373786,1.081101677996234,1.3760293902523502,0.2391023004293834,1.0,0.0,1.0,fall_backward
10009,30,-0.24875044235599242,0.004122944623463437,0.1748148946788002,0.15350296442201525,0.19072064368790834,0.2777642895774022,1.6155674320811813,-1.1345562197001517,-1.5002553177251259,1.0,0.0,1.0,fall_backward
10009,31,-0.15440100534307918,0.13920321138808545,-0.2026717535893489,-0.039163213284081885,-0.047114801185291266,-0.024523942661967134,-1.4415431577440254,-0.14834121891471547,-0.5823941746952955,1.0,0.0,1.0,fall_backward
10009,32,0.03619971859884268,0.2367259473214518,-0.190488881391616,-0.023772645544869866,0.15371624216879282,0.08003495297133836,-0.5953671939811902,-0.5894911658574085,0.9260138924509412,1.0,0.0,1.0,fall_backward
10009,33,0.3391457304306036,0.016292860823874485,0.21141019996262858,-0.22122621401290757,0.035014491407149864,-0.05418924432098808,-0.7309626853508875,-0.009652979454286892,-0.5646249451114087,1.0,0.0,1.0,fall_backward
10009,34,-0.31351430454128454,0.18487801435134024,-0.18924464958494253,0.05878062383396711,-0.005058038173109743,0.06613577409568734,-0.7226768406993253,1.0461158144635192,-0.39133774930006937,1.0,0.0,1.0,fall_backward
10009,35,-0.24005876048048283,-0.4824788847113798,0.3590528976940152,-0.028935178784411347,-0.0879320721350496,0.027330362550361215,-0.6853256690093702,0.07724155438411971,0.9679546275576946,1.0,0.0,1.0,fall_backward
10009,36,0.2557552788714064,0.18546233555195604,0.27147256537295317,-0.182711082285475,0.001153749271980529,-0.04784797665975606,0.04796644330171335,0.8763026368729093,-0.9599719907475955,1.0,0.0,1.0,fall_backward
10009,37,-0.3273189831397567,0.042693777165828235,0.03372124578935606,0.10472929880987078,-0.1685971499441758,-0.05604727568515785,-1.3020500263511892,-1.3764805888418195,1.011718029556171,1.0,0.0,1.0,fall_backward
10009,38,-0.09584445896059698,-0.18990359230161863,0.18639077664617995,0.06262440224957884,-0.0960978691537148,0.05625817018149244,0.3012191517885334,-0.567032090007605,1.3326984464496237,1.0,0.0,1.0,fall_backward
10009,39,0.5457074314724456,-0.24284608024059057,-0.5246827703995655,0.12535883666573305,0.04946601169442447,0.01405807831555704,-0.29763179482887747,-0.9346200167061887,-1.5413330967370409,1.0,0.0,1.0,fall_backward
10009,40,0.38074332584179166,-0.00024704166758517977,0.36669660803911797,0.03079715353485859,-0.09567461037751224,-0.032319783731369775,1.3428766030730517,0.9515408378086797,-0.40809314494648935,1.0,0.0,1.0,fall_backward
10009,41,-0.3862712093815646,-0.38712413759756453,-0.06410626356297894,-0.09229710092371825,0.060490215504451356,-0.07799359527502804,-1.1462282351329616,-0.4273415742811356,0.6548220176454584,1.0,0.0,1.0,fall_backward
10009,42,0.32748908828077283,0.15668248788111022,0.048782014979734736,0.15292900191685627,-0.027679519761390298,0.007542495642934972,-0.18658829387871043,-0.030311258991680842,1.5538331013170492,1.0,0.0,1.0,fall_backward
10009,43,-0.15429687343517395,0.20259961224497264,-0.17885759499743192,0.023897456910031416,0.05455430730260176,-0.11772024844104152,1.6909428041407926,1.5314171509437078,-0.5494584253052995,1.0,0.0,1.0,fall_backward
10009,44,0.16265661337178797,0.2549900190351134,-0.09370618143660808,-0.08172301121780949,0.03734453563242145,0.0631402800749764,0.15031158972034764,0.007089465680408635,2.560749161912824,1.0,0.0,1.0,fall_backward
10009,45,-0.1937726402903022,0.0190163908431821,0.12674811229632532,-0.07880201777260956,0.1419823862415438,0.06968018242743008,-1.454350279343413,2.2381116138151933,1.417486979915513,1.0,0.0,1.0,fall_backward
10009,46,0.6569692505629727,0.17292332799977048,0.29427651041422326,0.10381685271980796,0.016063118565942527,-0.007203340665266376,-0.10764248241696853,0.21407942384560744,0.12164853210120767,1.0,0.0,1.0,fall_backward
10009,47,0.18763324341392823,-0.1907280063759053,0.20441562491649304,0.014148798914686567,0.08225147927568324,-0.11414914323529148,-0.24709849429420078,-0.3583826295638681,0.7781740774525228,1.0,0.0,1.0,fall_backward
10009,48,-0.012076567638346303,0.19565390320687825,0.09322640089876702,-0.043046006969928184,0.16169652945719803,0.005331671236973398,-0.6006325594284905,0.7945449645531146,0.5246857798714297,1.0,0.0,1.0,fall_backward
10009,49,0.10755341202751986,-0.054066679909227935,-0.27525301165367166,-0.0744492008387691,0.10679088856065923,0.027793544533394568,1.1565041775466887,0.02624972826407107,-0.8911592846015752,1.0,0.0,1.0,fall_backward
10010,0,-0.02647470423927073,0.0862485343082299,-0.3560838955469256,-0.020756263197835693,0.05952954842382556,-0.10569471104373784,-2.204139935937452,0.13854058711763811,0.693664291833061,1.0,1.0,0.0,walk
10010,1,-0.03691291532060008,0.3314462301657807,0.3186515579807918,0.068624124599168,0.008305620700930957,0.09585888866262274,-0.20264968491062074,-1.3576419950129928,0.22612397551791094,0.0,1.0,1.0,walk
10010,2,0.20128659219989098,0.4201261301809385,0.15640646580668935,0.08141455668819413,0.19290411658029,0.13988180628502606,0.23176094713955825,0.274816412995446,0.17012570725780907,0.0,0.0,0.0,walk
10010,3,0.572054181948766,0.22468209472337788,0.5735726995859124,-0.14675397541353563,-0.11277755157344438,-0.05834620972446097,-0.06071904592000435,-0.5290735479528815,-1.3359554822208968,0.0,1.0,0.0,walk
10010,4,-0.051963010419647335,0.07080768970617217,-0.008140061028366449,-0.01908353226699514,-0.07588406175002464,0.008129408130755706,0.9409182452758805,0.01328294975234131,-1.2900994890185458,0.0,1.0,0.0,walk
10010,5,0.2608018423217767,0.448671337011869,0.4469304218622361,0.3177183425396692,0.07266861473600952,-0.0010321746751824172,1.1507851293404037,0.5291225178454313,1.7102962889282844,0.0,0.0,0.0,walk
10010,6,0.5561565292578353,0.4399754686657115,0.49353160029925225,-0.05905868864007528,0.08730775429732712,-0.005381119430203116,-0.19389981281659427,0.030923812458270687,0.5047260138637271,0.0,0.0,0.0,walk
10010,7,0.33784890237117626,0.3322790297754197,0.5316549882861925,0.029977586276405673,0.2075022763965404,0.04726330804897742,-0.2614221601366274,0.4506376113499549,0.07861051239900393,0.0,1.0,1.0,walk
10010,8,-0.10025374973552166,0.6578673093833589,0.3346159087354241,-0.05635095241003872,0.015769274897250107,0.032466848274542034,-1.4281139631043183,-0.16530234774475133,-1.2840124820897338,0.0,0.0,0.0,walk
10010,9,0.6232783875711837,0.6026575549009483,0.6100873088461403,-0.015197205762839616,-0.09525289541870377,-0.2076201168063221,1.7404064554251915,-0.37867811363026627,1.2628058159811189,0.0,1.0,0.0,walk
10010,10,0.1848597274521878,0.6546569297740978,0.6449721520551921,0.20087119597706604,0.04264427875929123,0.06562937647381699,0.45237831630388076,0.5659462313403489,-0.8100580145233742,0.0,0.0,0.0,walk
10010,11,0.45371897298735825,0.08378859298189921,0.544416353339933,0.05130262550288062,-0.054385823631015906,0.10593923262140914,1.0564037823418801,-0.7009528194363618,0.2447134295029141,1.0,0.0,0.0,walk
10010,12,0.4174103223612796,0.15638628433900717,0.37519907027742583,-0.006746224526247114,0.1225475611832128,0.021806132218582033,-1.4797883754076546,-0.8121110527389177,1.0075918196533376,0.0,1.0,0.0,walk
10010,13,0.538443475968432,0.1971497392012289,0.7703543691201109,-0.08873540421851374,-0.05389015556174924,0.016912881485639214,-0.11338137219085057,0.6758144412579895,-1.2159932460433855,0.0,0.0,0.0,walk
10010,14,-0.053970239935586674,0.07307145857282478,0.3614849948957972,-0.09261699203039346,0.039588867161634206,-0.13322290088139507,-1.4162253842598915,0.7947293946165944,-1.201633081206079,0.0,1.0,0.0,walk
10010,15,0.2791694760950334,-0.03820505393704088,0.1781283667530582,0.05866241263744872,-0.025650299540426226,-0.0758960774112783,-0.38546445071686686,0.1046710859381869,1.6152435691044669,0.0,0.0,0.0,walk
10010,16,-0.15658404682683405,-0.07509591608894284,-0.17107393371296423,-0.00860670450667825,-0.12714917718864002,-0.03596700887680154,-0.14539166583949634,-0.8779684520718359,-1.9597541638286313,0.0,0.0,0.0,walk
10010,17,0.009072873550089192,-0.04906895417723698,-0.050155945582442844,-0.1136732495192412,0.09284273832295462,0.22239385840067866,0.189150379787833,0.6877587635335752,-0.6655625640119615,0.0,0.0,0.0,walk
10010,18,-0.19241220521328445,-0.07049980290467223,0.23285001271379438,0.10562427465689081,-0.09559043782803847,-0.07629929666752375,-0.6743761820790684,-0.15484214173903496,-0.4903545509197858,0.0,0.0,0.0,walk
10010,19,-0.08969393599985838,-0.1847843097711893,-0.2725782200054421,0.07053591557516556,0.11914394148010707,0.14117517785479072,-0.6028993536178795,-0.7813627314339513,-0.16660694567332424,0.0,1.0,0.0,walk
10010,20,-0.570235228483271,0.09048587671229956,-0.0803568642167916,0.005622823247554585,0.11035507215437963,-0.0735200810946533,-0.2692975915351916,-0.9311598479835814,-0.8572571201983366,0.0,0.0,0.0,walk
10010,21,-0.11223669749184119,-0.39020598178823734,-0.5940751306415312,0.03356303065740652,0.014616541701179417,0.17422005906934387,-1.1937849267772744,1.3672502925487746,0.026272652189893442,0.0,0.0,0.0,walk
10010,22,-0.75,-0.12579856731604033,-0.29712897928189114,-0.1301755542641177,0.006527929695713117,-0.040607410809515375,0.3029795072234921,0.31279996445523145,-2.2021864497756254,0.0,1.0,0.0,walk
10010,23,-0.6257861791205971,-0.3774385928919566,-0.42237932334588,0.15286432847718248,-0.06613939975834568,0.016718334292758725,1.4388770749526265,2.3353019421503585,-0.266698437736162,1.0,1.0,0.0,walk
10010,24,-0.3660056304637317,-0.5305011292872674,-0.2419850158812448,-0.02143136745114861,0.16446876367095162,0.20497077066942274,0.001701262275335274,-0.84420664046382,0.21985482905140039,1.0,1.0,0.0,walk
10010,25,-0.33133230517534984,-0.27584258367828796,-0.5941724377521231,0.0380800901849059,-0.1863012413013206,-0.09479391339487608,-1.936162797968317,0.9884973017120203,0.011435721900543558,0.0,1.0,0.0,walk
10010,26,-0.3598820760251456,-0.5649637950361818,-0.7,-0.11195933607100071,-0.002669274034888685,0.0022758923898473365,-0.3981433545964728,-0.19609262571459762,0.3534222284165588,0.0,1.0,0.0,walk
10010,27,-0.03452848949732085,-0.679382165664226,-0.5124209430431783,-0.034043316255154846,0.12486890570539722,0.16242820798780913,0.17642326698667657,1.0994978786762375,0.1095179483509736,0.0,1.0,0.0,walk
10010,28,-0.2752211552740355,-0.09680138959015532,-0.28371070232609713,0.10409562052337318,0.025072597274732978,-0.10950105833582188,-0.4699085450684298,0.21816759854701812,-0.8278802341385014,0.0,0.0,0.0,walk
10010,29,-0.3249571891596953,-0.3109021603348469,-0.4149847921759556,0.05235222302419287,0.22996009225928013,-0.01604546299842225,-0.9316323327522208,-0.9918291697020974,0.6153523687701342,0.0,1.0,0.0,walk
10010,30,-0.08652021321774817,-0.5173583271081394,-0.06550683284346538,-0.09985118234383433,0.0003005029450868792,-0.01811873650294006,2.1000492607926073,-1.242349277267518,-0.6718208596003188,0.0,1.0,0.0,walk
10010,31,-0.2767241648943893,-0.004264811738297926,0.03679638684588093,0.15208036331869007,-0.05218335369896754,0.2051413506185259,-1.427207998729017,2.1182510411886937,0.3732228900116707,0.0,1.0,0.0,walk
10010,32,0.1894324672562019,-0.006288479429243168,0.04568414010949623,0.15605655278114616,0.02150359282060539,-0.05572220461503945,2.181642628336437,2.240125126243654,1.9076250642657235,0.0,0.0,0.0,walk
10010,33,0.06202442078871161,-0.15368641257918678,0.11255099890572914,-0.019897383425196497,0.04128212724053429,0.08838955361261544,0.8541836293982754,0.613809919852663,-0.003038001841147905,0.0,1.0,0.0,walk
10010,34,0.31489998004109365,-0.3596382950011534,-0.15146405424856918,-0.1800049663330468,0.020670345200798173,-0.1566990673448148,0.6806473927356003,0.16885255365734322,-0.18820626984120048,0.0,1.0,0.0,walk
10010,35,0.7179892123310799,0.1491459900765079,0.30442140047710825,0.031385611801622866,0.0661818017720023,-0.02738717744992282,-0.07835678396770071,-0.44843570119240234,-0.9625327029059602,0.0,1.0,0.0,walk
10010,36,0.5335121099974267,0.06179512694402148,-0.27859966081018234,-0.04184146830659066,-0.006557805965760319,0.17550241530889366,1.1751580345175636,-1.4645007508082035,0.7568398023198243,0.0,1.0,0.0,walk
10010,37,0.23461639641013668,0.6097017814919559,0.2017621153482921,-0.24875023581074268,-0.007050805559410867,-0.050079368574058966,-1.3754620272996914,1.3499633482738214,0.8498752998857932,0.0,1.0,0.0,walk
10010,38,0.4265100336996833,0.6222876084572073,0.5729390548949953,-0.03580128031078254,0.10604954410000449,-0.004963986817697656,-1.0602418166694636,2.2589330803087315,0.7714171404998396,0.0,1.0,0.0,walk
10010,39,0.75,0.34031774257507313,0.13469755730415853,0.1484942181450414,-0.05110429078649775,-0.08975320162121239,-0.5877042652229618,1.1300312515412363,0.26378262973542854,0.0,1.0,1.0,walk
10010,40,0.2447393767844427,0.46814676905636393,0.5922319592660387,-0.14811728694596213,-0.10282224479246459,-0.08008128722619379,-0.20938475842973564,1.4911390053994151,-0.6121126573121354,0.0,1.0,0.0,walk
10010,41,0.04839971505869575,0.6790852837568822,-0.004896424762482528,-0.008567120979527193,-0.03221674379313494,-0.0273488081373476,-0.22653697054728972,0.016537247310276074,1.2222017390696462,0.0,1.0,0.0,walk
10010,42,0.7465971774932411,0.0639946931981597,0.8570482027634949,0.0289101089293177,0.06501415744695463,-0.19041948057635016,-0.04405843666170071,0.08123238254004544,-0.9331840046218631,0.0,0.0,0.0,walk
10010,43,0.38799692289363175,0.4169439878832901,0.3994880359655145,-0.024374454387874757,0.05015520001619816,-0.11587460068476299,1.475278087852334,0.826494497340102,0.1090610979476116,0.0,1.0,1.0,walk
10010,44,0.18449896422580925,0.08231818412749267,0.2553062765538311,0.02269040987684112,0.04143785411662294,0.11802782325583282,0.2174478789433782,0.49078054537046323,0.0982610976045995,0.0,1.0,1.0,walk
10010,45,0.10473660900634957,0.2838397986780382,0.3778650437881531,0.11107986312539878,0.043616198880842325,0.20131669598080043,0.517640119829915,-0.5631254901102081,-0.020502844542910476,0.0,0.0,1.0,walk
10010,46,0.75,0.33614342515539153,0.057516987163906116,-0.02494873999318844,-0.09144880763500662,0.1699554899617932,-0.47964338461429223,-0.621533133838036,0.8647692601047684,0.0,1.0,1.0,walk
10010,47,0.21905224407106355,0.43276349643747136,0.36023528313715886,0.028207988693580568,-0.14765625570291643,-0.007017805552626782,0.7303925088791641,-0.4589676949846506,0.5824710921980656,0.0,0.0,1.0,walk
10010,48,0.4679439148636878,0.17874333602919296,-0.1305253830406044,-0.09274315533334844,-0.03395234091874124,0.13246473513506746,1.3415751397683509,0.048294813668000494,-0.3589030941436327,0.0,1.0,0.0,walk
10010,49,-0.04470558424824548,-0.12426628670470082,-0.15077979034210648,0.31454315261636884,-0.035748506878483605,0.09421588796578277,-0.45685364259008787,0.36389018424904146,0.2732632369156838,0.0,1.0,1.0,walk
10011,0,-0.40098565859290114,0.04175890590108433,-0.16522582626934537,0.07790563523061002,0.09462521293132267,-0.1628947899497477,-0.009308735982812389,0.6572041201392376,0.4704734192790635,0.0,1.0,0.0,sit
10011,1,-0.011938463530722955,0.1747024462631216,-0.1495997768467221,-0.0550266436424509,0.004592597678303119,-0.05041384015082302,0.8925294341787962,-1.3226894065958543,-1.5429402395749958,0.0,0.0,0.0,sit
10011,2,-0.1290148443440414,0.16007257114280057,-0.00027319066255530183,0.23621143512892162,0.08432373654962906,-2.3983186934728538e-05,1.8461404307437628,0.4219998430746201,0.8580276870621568,0.0,1.0,1.0,sit
10011,3,-0.06956946163356582,-0.0569301281055105,-0.5535070343251709,-0.20733620656710736,-0.03555271565633665,0.05237094967958582,2.768554689212796,-0.30692290698471686,-0.0478346567873675,0.0,1.0,1.0,sit
10011,4,0.16878439689595012,-0.0002687017348824037,0.13572940699112984,0.07233204496968121,0.07536516902899691,0.02912258880000718,3.670452630168717,-1.1312023559069078,-1.1434678193725252,0.0,1.0,0.0,sit
10011,5,-0.129112602116201,-0.10793840384655318,0.2492508971653598,0.034570770698475174,0.055960560474704615,0.0026644146653715785,4.6011620162154285,-0.22096278606057992,0.4198150375958182,0.0,1.0,0.0,sit
10011,6,-0.428379203938921,0.22391402720708092,0.024368469525979743,-0.05728227718561531,-0.12840023252925123,0.017022920626733534,5.5241561099879295,-0.45061816386596626,0.9156262341802555,0.0,1.0,0.0,sit
10011,7,-0.1972938909250685,0.1247953998155796,-0.08905180508851393,0.08719130477424665,-0.028183526713887935,0.21730729489276066,6.429699594081281,-1.3329110042982615,0.8745204933101332,0.0,1.0,0.0,sit
10011,8,-0.16429905487806296,0.10629749142983769,0.15972638095438946,0.03887665566722154,0.05213571310480976,0.057825686955216005,7.348545526238517,-0.5604422945626668,0.10378968763815524,0.0,1.0,0.0,sit
10011,9,-0.22335377097450362,0.03975842898672328,0.0906263428286758,0.02435709672789245,0.04633594390808386,0.14024143067822523,8.242501810359864,-0.32741416978101884,0.49662241458232464,0.0,1.0,1.0,sit
10011,10,-0.47403325333131097,0.0725818613683256,-0.10806458380666906,0.060636393505658095,-0.05777041673358318,-0.03691712824022485,9.2271126969971,1.0514748435230918,0.8706762367698463,0.0,0.0,0.0,sit
10011,11,-0.061202611495701484,0.00013690577725568656,-0.30543210777106394,0.0208528788869959,-0.13738758035098983,-0.15909071921818485,10.120424235323034,0.11522191372039986,-0.16040491351314004,0.0,1.0,0.0,sit
10011,12,0.03181172974938347,-0.1027415452189127,-0.029294663928065318,0.01586864353521667,0.05370426877916596,-0.1179431589228603,11.00983652500163,0.2585201230886041,1.5230357597724886,0.0,0.0,0.0,sit
10011,13,-0.15474140696603592,-0.10402726581747747,0.06049943510877191,-0.013783692162444792,-0.049512031405474256,0.0009733836610881404,11.886733644255548,1.7148477099703716,0.8146720220087241,0.0,1.0,0.0,sit
10011,14,0.18422440024093137,-0.1880784486549774,-0.10608064880330512,-0.08773205836375951,0.06269002316194885,0.001127333894527429,12.854782858459691,0.2685694293772097,-0.6295991003500994,0.0,1.0,0.0,sit
10011,15,-0.16219700840773685,-0.10003476502887058,-0.04767747461438858,-0.12803266734496616,-0.17506282359014225,-0.02362924815176162,13.731509509784724,-0.7008788258783152,1.6132786037690832,0.0,1.0,0.0,sit
10011,16,-0.21293974936841364,-0.2466780585945012,0.44655429679223413,0.09185641184930045,0.19810194715352647,-0.050256062082350866,14.736111319774508,-0.36722626193441765,-1.524944954229394,0.0,1.0,0.0,sit
10011,17,-0.01004217781880187,0.2259905469518543,0.2368596878109418,0.1932537498504884,-0.1789277579575893,-0.1306790510223366,15.647547022892315,2.3971917480121014,0.21332802376990628,0.0,1.0,0.0,sit
10011,18,-0.044706794445395825,0.1417686780499682,-0.14085974519920827,-0.16488318225914148,0.059993807177495084,-0.05464951494792212,16.535704954576055,-0.2633240282639565,-0.060028574650537084,0.0,1.0,1.0,sit
10011,19,0.10478623705553401,-0.1337187670187469,-0.0637394534604225,0.05189038841640855,-0.11950077739052231,0.05092133414044894,17.44445200595381,0.4876282189914291,-0.7973375856126017,1.0,1.0,0.0,sit
10011,20,-0.2072227993334602,-0.14287138099534338,-0.10507838995030928,-0.10189405123161716,-0.13374539758328016,-0.09239796296424005,18.35975528968402,2.7783281922228507,0.27085377552193696,0.0,0.0,0.0,sit
10011,21,0.40989521921947336,0.15214050846870295,-0.14160199879763677,-0.10902934855874212,-0.08887540008282122,0.059107009289912874,19.30028893656277,1.0796177548238297,1.4637997173320143,0.0,1.0,0.0,sit
